#time[s] ax ay az[m/s^2] temperature[C] gx gy gz[rad/s] magx magy magz[T]
0.111	3.83311685791	-9.15542714844	-0.270544787598	29.6558823529	0.49335528398	-0.358791730963	0.562235835375	-1.41e-05	-1.5e-06	-2.13e-05
0.121	3.85227047119	-9.08360109863	-0.232237561035	29.5617647059	-0.0526263400411	-0.33174578912	0.565699847631	-1.29e-05	1.5e-06	-2.19e-05
0.131	3.89057769775	-9.04529387207	-0.239420166016	29.6558823529	-0.00186523736854	-0.0267794793627	-0.0213169984976	-1.35e-05	3e-07	-2.25e-05
0.141	3.87142408447	-9.08120689697	-0.251391174316	29.6558823529	-0.00932618684272	-0.0390367534988	-0.0383705972958	-1.29e-05	9e-07	-2.19e-05
0.151	3.95043273926	-9.07881269531	-0.30885201416	29.75	-0.0125237366174	-0.0322419602277	-0.0421010720328	-1.47e-05	-9e-07	-2.07e-05
0.161	3.9121255127	-8.98543883057	-0.30885201416	29.75	-0.00959264932394	-0.0355727412429	-0.0500949464695	-1.29e-05	3e-07	-2.19e-05
0.171	4.00310517578	-9.03092866211	-0.275333190918	29.6558823529	-0.00119908116549	-0.0381041348145	-0.0303767228591	-1.35e-05	9e-07	-2.25e-05
0.181	4.00310517578	-8.95431420898	-0.237025964355	29.8441176471	0.00426339969953	-0.0250474732347	0.007860643196	-1.26e-05	1.2e-06	-2.22e-05
0.191	3.94564433594	-8.91600698242	-0.217872351074	29.8441176471	0.00866003063967	-0.00532924962441	0.0548912711314	-1.41e-05	-3e-07	-2.13e-05
0.201	3.89057769775	-9.03332286377	-0.143652099609	29.8441176471	0.0202511485728	0.0065283307899	0.0467641654542	-1.41e-05	3e-07	-2.31e-05
0.21	3.91451971436	-9.08838950195	-0.179565124512	29.75	0.0142557427453	-0.0137228177829	0.0381041348145	-1.29e-05	-3e-07	-2.01e-05
0.221	3.81156904297	-8.99501563721	-0.15083470459	29.8441176471	0.0118575804143	-0.00892649312089	0.0422343032735	-1.29e-05	1.5e-06	-2.19e-05
0.231	3.92888492432	-9.05726488037	-0.263362182617	29.8441176471	0.00346401225587	-0.0183859112042	0.0329081164307	-1.38e-05	0.0	-2.22e-05
0.24	3.84987626953	-9.06923588867	-0.174776721191	29.8441176471	0.000799387443662	-0.0167871363169	-0.00426339969953	-1.26e-05	0.0	-2.22e-05
0.25	3.95282694092	-9.10036051025	-0.203507141113	29.9382352941	-0.0158545176326	-0.0413016845892	-0.0508943339131	-1.32e-05	-6e-07	-2.22e-05
0.261	3.93127912598	-8.92797799072	-0.225054956055	29.9382352941	-0.0105252680082	-0.0427672282359	-0.0674150077488	-1.29e-05	3e-07	-2.19e-05
0.271	3.97676895752	-8.9231895874	-0.287304199219	29.9382352941	-0.0111914242113	-0.0443660031232	-0.0391699847394	-1.26e-05	6e-07	-2.22e-05
0.28	3.924096521	-9.05726488037	-0.378283862305	29.9382352941	-0.000666156203051	-0.0191852986479	-0.015055130189	-1.32e-05	6e-07	-2.22e-05
0.29	3.9959225708	-8.93994899902	-0.251391174316	29.9382352941	0.00359724349648	-0.0245145482723	0.00346401225587	-1.41e-05	-3e-07	-2.25e-05
0.301	3.91691391602	-9.03571706543	-0.258573779297	29.8441176471	0.012656967858	-0.0135895865422	0.0191852986479	-1.38e-05	1.2e-06	-2.16e-05
0.311	3.98873996582	-8.99501563721	-0.253785375977	29.9382352941	0.0129234303392	-0.0090597243615	0.038637059777	-1.53e-05	-9e-07	-2.13e-05
0.32	3.90254870605	-9.06923588867	-0.251391174316	29.9382352941	0.0129234303392	-0.00772741195539	0.0487626340634	-1.35e-05	3e-07	-2.13e-05
0.33	3.89776030273	-9.04529387207	-0.258573779297	29.9382352941	0.0147886677077	-0.0118575804143	0.0425007657547	-1.38e-05	6e-07	-2.16e-05
0.34	3.92888492432	-9.03571706543	-0.284909997559	30.0323529412	0.00359724349648	-0.020517611054	0.0226493109037	-1.29e-05	3e-07	-2.19e-05
0.351	3.90973131104	-9.07641849365	-0.174776721191	29.9382352941	-0.00013323124061	-0.0207840735352	-0.00293108729343	-1.29e-05	3e-07	-2.31e-05
0.36	3.9360675293	-9.02374605713	-0.177170922852	30.0323529412	-0.00559571210563	-0.0334410413932	-0.0337075038744	-1.23e-05	9e-07	-2.13e-05
0.37	3.97437475586	-8.97107362061	-0.277727392578	30.0323529412	-0.0111914242113	-0.0402358346643	-0.0342404288368	-1.23e-05	-3e-07	-2.25e-05
0.38	3.96719215088	-9.00698664551	-0.30166940918	30.0323529412	-0.0038637059777	-0.029044410453	-0.0245145482723	-1.29e-05	1.5e-06	-2.31e-05
0.391	4.00071097412	-9.05487067871	-0.239420166016	29.9382352941	-0.007860643196	-0.0293108729343	-0.0270459418439	-1.38e-05	0.0	-2.28e-05
0.4	3.98873996582	-8.98304462891	-0.189141931152	30.0323529412	0.000799387443662	-0.02837825425	-0.0165206738357	-1.14e-05	1.2e-06	-2.46e-05
0.41	4.00310517578	-8.97107362061	-0.29927520752	30.0323529412	0.00346401225587	-0.0238483920692	0.00972588056455	-1.35e-05	9e-07	-2.19e-05
0.42	3.96719215088	-8.99980404053	-0.203507141113	30.0323529412	0.00892649312089	-0.0113246554519	0.0353062787617	-1.38e-05	6e-07	-2.22e-05
0.43	3.85945307617	-9.04768807373	-0.196324536133	30.0323529412	0.01092496173	-0.00746094947417	0.044765696845	-1.38e-05	0.0	-2.16e-05
0.44	3.89297189941	-9.06923588867	-0.215478149414	30.0323529412	0.013323124061	-0.00852679939906	0.036238897446	-1.26e-05	-1.2e-06	-2.28e-05
0.45	3.87860668945	-8.95192000732	-0.208295544434	30.0323529412	0.00732771823356	-0.0165206738357	0.0253139357159	-1.35e-05	-3e-07	-2.37e-05
0.46	3.94085593262	-9.04289967041	-0.217872351074	30.0323529412	0.0038637059777	-0.0213169984976	0.00746094947417	-1.32e-05	6e-07	-2.16e-05
0.47	3.90254870605	-9.10275471191	-0.296881005859	30.0323529412	-0.00306431853404	-0.0281117917688	-0.00839356815845	-1.26e-05	6e-07	-2.22e-05
0.48	3.9600095459	-9.01177504883	-0.220266552734	30.1264705882	-0.00666156203051	-0.0306431853404	-0.022915773385	-1.32e-05	1.2e-06	-2.28e-05
0.49	3.9600095459	-9.03811126709	-0.179565124512	30.1264705882	-0.0090597243615	-0.0342404288368	-0.0315758040246	-1.17e-05	3e-07	-2.25e-05
0.5	3.95043273926	-9.04529387207	-0.232237561035	30.0323529412	-0.00293108729343	-0.0351730475211	-0.036905053649	-1.29e-05	-3e-07	-2.19e-05
0.509	3.97676895752	-8.97586202393	-0.30885201416	30.0323529412	-0.00306431853404	-0.0319754977465	-0.0202511485728	-1.29e-05	9e-07	-2.25e-05
0.52	4.01747038574	-8.97825622559	-0.239420166016	30.1264705882	0.0	-0.0218499234601	0.00466309342136	-1.32e-05	0.0	-2.22e-05
0.53	3.96958635254	-9.00938084717	-0.347159240723	30.1264705882	0.00586217458685	-0.0161209801138	0.0250474732347	-1.29e-05	-3e-07	-2.19e-05
0.54	4.00549937744	-8.96149681396	-0.191536132812	30.0323529412	0.0105252680082	-0.00706125575234	0.0399693721831	-1.23e-05	-9e-07	-2.19e-05
0.549	3.9719805542	-9.00938084717	-0.270544787598	30.0323529412	0.0129234303392	-0.0123905053768	0.044099540642	-1.47e-05	9e-07	-2.13e-05
0.56	3.95522114258	-9.05726488037	-0.239420166016	30.1264705882	0.00985911180516	-0.0138560490235	0.0321087289871	-1.35e-05	-3e-07	-2.07e-05
0.57	3.93127912598	-9.03092866211	-0.201112939453	30.1264705882	0.00426339969953	-0.0177197550012	0.007860643196	-1.17e-05	9e-07	-2.13e-05
0.58	3.96719215088	-9.05008227539	-0.270544787598	30.0323529412	-0.00213169984976	-0.0303767228591	-0.00692802451173	-1.47e-05	-3e-07	-2.07e-05
0.589	4.02465299072	-9.02853446045	-0.198718737793	30.0323529412	-0.000932618684272	-0.033174578912	-0.0162542113545	-1.23e-05	3e-07	-2.25e-05
0.6	3.9480385376	-9.05247647705	-0.179565124512	30.1264705882	-0.0051960183838	-0.0245145482723	-0.0279785605282	-1.38e-05	0.0	-2.04e-05
0.61	4.01747038574	-8.93755479736	-0.30166940918	30.2205882353	0.00253139357159	-0.0342404288368	-0.0337075038744	-1.23e-05	3e-07	-2.13e-05
0.619	4.0198645874	-8.97586202393	-0.335188232422	30.1264705882	-0.00239816233098	-0.0405022971455	0.007860643196	-1.38e-05	1.8e-06	-2.1e-05
0.629	3.88818349609	-8.91840118408	-0.167594116211	30.1264705882	0.00186523736854	-0.0106584992488	0.0119908116549	-1.32e-05	6e-07	-2.1e-05
0.64	3.93367332764	-8.97586202393	-0.237025964355	30.1264705882	0.0065283307899	-0.00679479327112	-0.0139892802641	-1.35e-05	3e-07	-2.19e-05
0.65	3.99831677246	-8.98304462891	-0.239420166016	30.2205882353	0.00173200612793	-0.0353062787617	-0.0231822358662	-1.32e-05	6e-07	-2.16e-05
0.659	4.07253702393	-9.00938084717	-0.31364041748	30.2205882353	0.00373047473709	-0.0295773354155	0.00706125575234	-1.41e-05	9e-07	-2.31e-05
0.669	3.96240374756	-8.95670841064	-0.270544787598	30.1264705882	0.0130566615798	-0.00492955590258	0.0518269525974	-1.35e-05	1.5e-06	-2.31e-05
0.679	3.99831677246	-9.06205328369	-0.227449157715	30.2205882353	0.0122572741361	-0.0038637059777	0.0558238898157	-1.35e-05	3e-07	-2.25e-05
0.69	3.92170231934	-9.07881269531	-0.184353527832	30.2205882353	0.0105252680082	-0.0162542113545	0.0402358346643	-1.41e-05	3e-07	-2.13e-05
0.699	3.9360675293	-9.01656345215	-0.222660754395	30.3147058824	0.00626186830868	-0.0225160796631	0.0209173047758	-1.35e-05	-9e-07	-2.25e-05
0.709	3.91451971436	-8.99980404053	-0.208295544434	30.2205882353	-0.0013323124061	-0.0147886677077	-0.0101255742864	-1.17e-05	3e-07	-2.19e-05
0.719	3.96958635254	-9.00938084717	-0.227449157715	30.1264705882	-0.00919295560211	-0.0342404288368	-0.047163859176	-1.35e-05	1.5e-06	-2.19e-05
0.73	4.01028778076	-8.97107362061	-0.234631762695	30.2205882353	-0.0106584992488	-0.0443660031232	-0.0638177642523	-1.38e-05	0.0	-2.34e-05
0.739	3.9839515625	-8.94234320068	-0.339976635742	30.1264705882	-0.0111914242113	-0.0430336907171	-0.0498284839882	-1.26e-05	0.0	-2.4e-05
0.749	3.96479794922	-9.00219824219	-0.30885201416	30.2205882353	-0.00626186830868	-0.0323751914683	-0.0103920367676	-1.26e-05	6e-07	-2.28e-05
0.759	4.0318355957	-8.97586202393	-0.3064578125	30.2205882353	0.00532924962441	-0.0209173047758	0.0249142419941	-1.23e-05	3e-07	-2.19e-05
0.77	3.99352836914	-9.01177504883	-0.244208569336	30.2205882353	0.0185191424448	-0.00679479327112	0.03930321598	-1.23e-05	1.5e-06	-2.25e-05
0.779	3.97676895752	-8.99501563721	-0.220266552734	30.2205882353	0.0183859112042	-0.00226493109037	0.036238897446	-1.44e-05	1.2e-06	-2.22e-05
0.789	3.99352836914	-8.97586202393	-0.143652099609	30.2205882353	0.0207840735352	-0.00679479327112	0.0442327718826	-1.44e-05	6e-07	-2.16e-05
0.799	3.94325013428	-9.04289967041	-0.177170922852	30.2205882353	0.0118575804143	-0.010258805527	0.0516937213568	-1.38e-05	-6e-07	-2.1e-05
0.808	3.93846173096	-9.04050546875	-0.136469494629	30.3147058824	0.00679479327112	-0.0161209801138	0.0363721286866	-1.14e-05	0.0	-2.1e-05
0.819	3.924096521	-9.12430252686	-0.234631762695	30.2205882353	-0.0051960183838	-0.0278453292875	-0.0143889739859	-1.35e-05	1.5e-06	-2.07e-05
0.829	3.97437475586	-9.02853446045	-0.196324536133	30.2205882353	-0.0153215926702	-0.0419678407922	-0.059154670831	-1.29e-05	-3e-07	-2.13e-05
0.839	3.98873996582	-9.01895765381	-0.289698400879	30.2205882353	-0.0101255742864	-0.0444992343638	-0.0739433385387	-1.29e-05	9e-07	-2.07e-05
0.848	4.06296021729	-8.96628521729	-0.284909997559	30.2205882353	-0.0114578866925	-0.0385038285364	-0.0491623277852	-1.2e-05	1.2e-06	-2.04e-05
0.859	4.04620080566	-8.98304462891	-0.282515795898	30.3147058824	0.00119908116549	-0.0319754977465	-0.0169203675575	-1.35e-05	-3e-07	-2.25e-05
0.869	4.01268198242	-8.93037219238	-0.244208569336	30.2205882353	0.0090597243615	-0.0183859112042	0.020517611054	-1.44e-05	0.0	-2.22e-05
0.879	3.9360675293	-8.98783303223	-0.244208569336	30.3147058824	0.0167871363169	-0.00892649312089	0.0507611026725	-1.29e-05	-9e-07	-2.31e-05
0.888	3.9839515625	-9.03811126709	-0.253785375977	30.2205882353	0.0182526799636	-0.00146554364671	0.0580888209061	-1.35e-05	3e-07	-2.19e-05
0.899	3.924096521	-8.98304462891	-0.15322890625	30.3147058824	0.0195849923697	-0.00732771823356	0.0551577336126	-1.26e-05	0.0	-2.16e-05
0.909	3.98155736084	-9.05965908203	-0.14604630127	30.2205882353	0.0111914242113	-0.0130566615798	0.0341071975962	-1.2e-05	6e-07	-2.1e-05
0.919	3.96958635254	-9.03332286377	-0.196324536133	30.3147058824	0.00439663094014	-0.0171868300387	0.00919295560211	-1.35e-05	-3e-07	-2.13e-05
0.928	4.01028778076	-9.03571706543	-0.16041151123	30.3147058824	-0.007860643196	-0.0326416539495	-0.0206508422946	-1.23e-05	9e-07	-2.13e-05
0.939	3.93367332764	-8.97825622559	-0.277727392578	30.2205882353	-0.00799387443662	-0.0394364472206	-0.0431669219577	-1.29e-05	3e-07	-2.31e-05
0.949	4.01507618408	-8.93276639404	-0.284909997559	30.3147058824	-0.0142557427453	-0.0414349158298	-0.047163859176	-1.35e-05	9e-07	-2.25e-05
0.959	4.03662399902	-8.9112185791	-0.30406361084	30.3147058824	-0.00612863706807	-0.033840735115	-0.0405022971455	-1.11e-05	3e-07	-2.19e-05
0.968	4.07493122559	-9.00459244385	-0.253785375977	30.3147058824	0.00253139357159	-0.0274456355657	-0.0182526799636	-1.14e-05	6e-07	-2.22e-05
0.978	4.07493122559	-8.90882437744	-0.263362182617	30.4088235294	0.0065283307899	-0.0161209801138	0.01092496173	-1.26e-05	6e-07	-2.28e-05
0.989	4.0318355957	-8.92558378906	-0.248996972656	30.2205882353	0.015721286392	-0.00599540582746	0.0406355283861	-1.23e-05	-9e-07	-2.19e-05
0.998	4.03901820068	-9.04289967041	-0.258573779297	30.3147058824	0.0142557427453	-0.00999234304577	0.0508943339131	-1.26e-05	6e-07	-2.1e-05
1.008	4.02944139404	-9.01416925049	-0.138863696289	30.3147058824	0.0146554364671	-0.00692802451173	0.0564900460187	-1.29e-05	-3e-07	-2.19e-05
1.018	3.9360675293	-8.98543883057	-0.14844050293	30.3147058824	0.00852679939906	-0.0154548239108	0.0343736600774	-1.35e-05	-9e-07	-2.37e-05
1.029	3.97916315918	-9.07641849365	-0.244208569336	30.3147058824	0.00346401225587	-0.0223828484225	0.0051960183838	-1.17e-05	-3e-07	-2.25e-05
1.038	3.94325013428	-9.04768807373	-0.225054956055	30.4088235294	-0.00839356815845	-0.0311761103028	-0.0227825421444	-1.29e-05	-3e-07	-2.31e-05
1.048	3.9959225708	-8.99262143555	-0.29927520752	30.2205882353	-0.00546248086502	-0.0358392037242	-0.0394364472206	-1.17e-05	3e-07	-2.07e-05
1.058	4.03901820068	-8.99740983887	-0.320823022461	30.3147058824	-0.01092496173	-0.0377044410927	-0.0379709035739	-1.26e-05	1.2e-06	-2.22e-05
1.069	3.98873996582	-8.98065042725	-0.270544787598	30.3147058824	-0.00612863706807	-0.0315758040246	-0.0285114854906	-1.17e-05	3e-07	-2.31e-05
1.078	4.0557776123	-8.89445916748	-0.260967980957	30.3147058824	0.00119908116549	-0.0273124043251	-0.0151883614296	-1.44e-05	2.4e-06	-2.1e-05
1.088	4.03422979736	-8.9591026123	-0.256179577637	30.3147058824	0.00826033691784	-0.0182526799636	0.00799387443662	-1.32e-05	0.0	-2.16e-05
1.098	4.03901820068	-8.97825622559	-0.205901342773	30.4088235294	0.00945941808333	-0.0154548239108	0.0274456355657	-1.35e-05	-3e-07	-2.13e-05
1.108	3.98873996582	-8.98065042725	-0.234631762695	30.4088235294	0.0173200612793	-0.0103920367676	0.0422343032735	-1.29e-05	-3e-07	-2.25e-05
1.118	4.02704719238	-8.95670841064	-0.232237561035	30.3147058824	0.0107917304894	-0.00959264932394	0.0427672282359	-1.14e-05	6e-07	-2.22e-05
1.128	3.96958635254	-9.00938084717	-0.225054956055	30.3147058824	0.00586217458685	-0.0127901990986	0.0319754977465	-1.35e-05	3e-07	-2.19e-05
1.138	3.88100089111	-9.07402429199	-0.193930334473	30.3147058824	0.00333078101526	-0.0178529862418	0.00666156203051	-1.26e-05	6e-07	-2.22e-05
1.148	3.9959225708	-8.96867941895	-0.191536132812	30.4088235294	-0.000666156203051	-0.0246477795129	-0.0130566615798	-1.26e-05	1.8e-06	-2.16e-05
1.158	4.05338341064	-8.92558378906	-0.30166940918	30.4088235294	-0.00466309342136	-0.031442572784	-0.0294441041749	-1.23e-05	3e-07	-2.31e-05
1.168	4.07971962891	-9.05008227539	-0.213083947754	30.4088235294	-0.00546248086502	-0.0371715161303	-0.0345068913181	-1.32e-05	0.0	-2.28e-05
1.178	4.01747038574	-9.00219824219	-0.260967980957	30.4088235294	-0.00666156203051	-0.0311761103028	-0.0257136294378	-1.47e-05	9e-07	-2.07e-05
1.187	4.10366164551	-8.99740983887	-0.292092602539	30.3147058824	-0.00439663094014	-0.0230490046256	-0.0121240428955	-1.29e-05	-3e-07	-2.19e-05
1.198	4.06535441895	-8.97346782227	-0.31364041748	30.4088235294	0.00506278714319	-0.0197182236103	0.00772741195539	-1.44e-05	0.0	-2.1e-05
1.208	4.07014282227	-9.02374605713	-0.234631762695	30.3147058824	0.0107917304894	-0.0119908116549	0.0234486983474	-1.11e-05	3e-07	-2.25e-05
1.218	4.03901820068	-9.02135185547	-0.265756384277	30.4088235294	0.0129234303392	-0.0107917304894	0.0359724349648	-1.11e-05	3e-07	-2.19e-05
1.227	4.02465299072	-9.01656345215	-0.246602770996	30.4088235294	0.01092496173	-0.0113246554519	0.0379709035739	-1.35e-05	3e-07	-2.19e-05
1.238	3.95282694092	-8.99740983887	-0.284909997559	30.4088235294	0.0127901990986	-0.0149218989483	0.0309096478216	-1.38e-05	6e-07	-2.34e-05
1.248	3.98634576416	-9.03571706543	-0.284909997559	30.4088235294	0.00812710567723	-0.0193185298885	0.01092496173	-1.23e-05	1.5e-06	-2.19e-05
1.258	3.9959225708	-8.98065042725	-0.15322890625	30.4088235294	-0.00319754977465	-0.0265130168814	-0.0110581929707	-1.41e-05	-3e-07	-2.13e-05
1.267	4.03422979736	-8.95192000732	-0.220266552734	30.4088235294	-0.00466309342136	-0.0321087289871	-0.0231822358662	-1.23e-05	1.5e-06	-2.25e-05
1.277	4.01747038574	-9.02374605713	-0.246602770996	30.4088235294	-0.00972588056455	-0.0317090352652	-0.0250474732347	-1.23e-05	9e-07	-2.19e-05
1.288	3.99352836914	-8.95670841064	-0.244208569336	30.3147058824	-0.00626186830868	-0.0269127106033	-0.020517611054	-1.41e-05	-9e-07	-2.07e-05
1.298	4.02225878906	-8.95431420898	-0.289698400879	30.4088235294	-0.00013323124061	-0.0270459418439	-0.0197182236103	-1.26e-05	1.2e-06	-2.04e-05
1.307	4.01747038574	-8.97586202393	-0.263362182617	30.4088235294	0.00452986218075	-0.0246477795129	-0.00359724349648	-1.29e-05	9e-07	-2.19e-05
1.317	4.07493122559	-8.93755479736	-0.337582434082	30.4088235294	0.00706125575234	-0.0143889739859	0.0158545176326	-1.41e-05	3e-07	-2.25e-05
1.328	4.02704719238	-8.90403597412	-0.201112939453	30.5029411765	0.00972588056455	-0.0138560490235	0.0346401225587	-1.29e-05	-3e-07	-2.07e-05
1.338	4.07971962891	-9.00219824219	-0.225054956055	30.5029411765	0.0115911179331	-0.0131898928204	0.0370382848897	-1.23e-05	-3e-07	-2.13e-05
1.347	4.04620080566	-9.01177504883	-0.234631762695	30.5029411765	0.00852679939906	-0.0122572741361	0.0265130168814	-1.29e-05	1.5e-06	-2.07e-05
1.357	3.9600095459	-8.98304462891	-0.208295544434	30.5029411765	0.00586217458685	-0.0225160796631	0.00945941808333	-1.38e-05	1.8e-06	-2.28e-05
1.368	3.98873996582	-8.97586202393	-0.217872351074	30.5029411765	0.0038637059777	-0.0230490046256	0.00186523736854	-1.41e-05	9e-07	-2.19e-05
1.377	3.9959225708	-8.97586202393	-0.14844050293	30.4088235294	-0.00226493109037	-0.0294441041749	-0.0103920367676	-1.26e-05	1.8e-06	-2.16e-05
1.387	4.01268198242	-9.00459244385	-0.253785375977	30.4088235294	-0.0038637059777	-0.0278453292875	-0.0159877488732	-1.35e-05	-3e-07	-2.31e-05
1.397	4.06056601562	-8.93755479736	-0.272938989258	30.4088235294	-0.00359724349648	-0.0347733537993	-0.0269127106033	-1.35e-05	3.3e-06	-2.13e-05
1.408	4.08929643555	-8.93994899902	-0.30166940918	30.4088235294	-0.00159877488732	-0.0275788668063	-0.021183767257	-1.35e-05	3e-07	-2.07e-05
1.417	4.07014282227	-8.91600698242	-0.342370837402	30.5029411765	0.00106584992488	-0.0239816233098	-0.00359724349648	-1.41e-05	1.5e-06	-2.31e-05
1.427	4.0318355957	-8.8872765625	-0.30166940918	30.4088235294	0.00612863706807	-0.0209173047758	0.0138560490235	-1.23e-05	3e-07	-2.19e-05
1.437	4.07014282227	-8.95192000732	-0.215478149414	30.5029411765	0.00945941808333	-0.0111914242113	0.0279785605282	-1.17e-05	1.5e-06	-2.25e-05
1.447	4.07014282227	-9.02614025879	-0.239420166016	30.5029411765	0.0117243491737	-0.0139892802641	0.0270459418439	-1.26e-05	6e-07	-2.22e-05
1.457	4.10605584717	-8.92079538574	-0.198718737793	30.4088235294	0.0105252680082	-0.0139892802641	0.0234486983474	-1.41e-05	2.1e-06	-2.31e-05
1.467	4.10126744385	-8.96149681396	-0.227449157715	30.5029411765	0.00972588056455	-0.0183859112042	0.0147886677077	-1.35e-05	-1.5e-06	-2.19e-05
1.477	4.01507618408	-9.02135185547	-0.31124621582	30.4088235294	0.00119908116549	-0.0217166922195	0.00719448699295	-1.14e-05	6e-07	-2.1e-05
1.487	4.02704719238	-8.93276639404	-0.328005627441	30.5029411765	0.00173200612793	-0.0266462481221	-0.00586217458685	-1.26e-05	1.8e-06	-2.1e-05
1.497	4.02704719238	-8.97346782227	-0.296881005859	30.4088235294	-0.0038637059777	-0.0302434916185	-0.0167871363169	-1.41e-05	-9e-07	-2.25e-05
1.507	4.07493122559	-8.94234320068	-0.275333190918	30.5029411765	-0.00546248086502	-0.0261133231596	-0.0239816233098	-1.26e-05	1.8e-06	-2.28e-05
1.517	4.07493122559	-8.95670841064	-0.292092602539	30.4088235294	-0.00279785605282	-0.0275788668063	-0.0193185298885	-1.29e-05	-9e-07	-2.19e-05
1.527	4.12999786377	-8.87769975586	-0.210689746094	30.4088235294	0.00213169984976	-0.023581929588	-0.00879326188028	-1.2e-05	-6e-07	-2.16e-05
1.537	4.11802685547	-8.95670841064	-0.244208569336	30.4088235294	0.00413016845892	-0.020517611054	0.00759418071478	-1.41e-05	-3e-07	-2.07e-05
1.547	4.07014282227	-8.90643017578	-0.234631762695	30.5029411765	0.00546248086502	-0.0178529862418	0.0199846860915	-1.38e-05	1.2e-06	-2.28e-05
1.557	4.12281525879	-8.99022723389	-0.229843359375	30.5029411765	0.0125237366174	-0.0191852986479	0.0321087289871	-1.29e-05	9e-07	-2.37e-05
1.566	3.97916315918	-8.93037219238	-0.198718737793	30.5029411765	0.00985911180516	-0.0123905053768	0.0282450230094	-1.23e-05	2.1e-06	-2.31e-05
1.576	4.0318355957	-8.96389101563	-0.225054956055	30.5970588235	0.00839356815845	-0.0170535987981	0.018119448723	-1.35e-05	3e-07	-2.19e-05
1.587	4.05817181396	-8.97586202393	-0.258573779297	30.5029411765	0.00226493109037	-0.0233154671068	0.00679479327112	-1.29e-05	-3e-07	-2.19e-05
1.597	4.03901820068	-9.00698664551	-0.220266552734	30.5029411765	-0.00159877488732	-0.0257136294378	-0.00239816233098	-1.23e-05	2.7e-06	-2.07e-05
1.606	4.07732542725	-8.92079538574	-0.239420166016	30.5029411765	-0.00213169984976	-0.0319754977465	-0.0146554364671	-1.17e-05	3e-07	-2.19e-05
1.616	4.11084425049	-9.00459244385	-0.31124621582	30.5029411765	-0.00586217458685	-0.0265130168814	-0.0218499234601	-1.26e-05	6e-07	-2.34e-05
1.627	4.03422979736	-8.90882437744	-0.280121594238	30.5970588235	-0.000399693721831	-0.0315758040246	-0.0227825421444	-1.02e-05	0.0	-2.34e-05
1.637	4.08211383057	-8.94952580566	-0.323217224121	30.5029411765	-0.00106584992488	-0.0274456355657	-0.013323124061	-1.32e-05	0.0	-2.34e-05
1.646	4.10845004883	-8.9231895874	-0.275333190918	30.5970588235	0.00333078101526	-0.0209173047758	0.00639509954929	-1.17e-05	-9e-07	-2.19e-05
1.656	4.07014282227	-8.91600698242	-0.237025964355	30.5029411765	0.00732771823356	-0.0166539050763	0.0197182236103	-1.11e-05	9e-07	-2.25e-05
1.667	4.09408483887	-8.95670841064	-0.260967980957	30.5029411765	0.0121240428955	-0.0139892802641	0.025980091919	-1.47e-05	3e-07	-2.25e-05
1.677	4.0557776123	-8.99740983887	-0.205901342773	30.5029411765	0.00719448699295	-0.0135895865422	0.0261133231596	-1.35e-05	3e-07	-2.13e-05
1.686	4.11563265381	-8.92797799072	-0.167594116211	30.5970588235	0.00279785605282	-0.0171868300387	0.0233154671068	-1.26e-05	1.2e-06	-2.28e-05
1.696	4.06296021729	-8.99740983887	-0.292092602539	30.5029411765	0.00586217458685	-0.0210505360164	0.0137228177829	-1.17e-05	1.5e-06	-2.07e-05
1.707	4.08690223389	-8.96867941895	-0.31124621582	30.5029411765	-0.00146554364671	-0.023581929588	-0.000799387443662	-1.23e-05	9e-07	-2.25e-05
1.717	3.9959225708	-8.947131604	-0.277727392578	30.5029411765	-0.00452986218075	-0.0325084227089	-0.0177197550012	-1.38e-05	-6e-07	-2.22e-05
1.726	4.07971962891	-8.92558378906	-0.227449157715	30.5970588235	-0.00532924962441	-0.0285114854906	-0.02837825425	-1.29e-05	9e-07	-2.19e-05
1.736	4.09887324219	-8.94952580566	-0.265756384277	30.5029411765	-0.00159877488732	-0.0277120980469	-0.0190520674073	-1.2e-05	1.2e-06	-2.1e-05
1.746	4.11802685547	-8.98304462891	-0.189141931152	30.5029411765	0.0	-0.0242480857911	-0.00812710567723	-1.2e-05	-6e-07	-2.16e-05
1.756	4.06296021729	-8.92797799072	-0.256179577637	30.5029411765	0.00199846860915	-0.0201179173321	0.00719448699295	-1.38e-05	6e-07	-2.16e-05
1.766	4.12042105713	-8.97107362061	-0.184353527832	30.5029411765	0.007860643196	-0.0173200612793	0.0141225115047	-1.26e-05	1.2e-06	-2.16e-05
1.776	4.0557776123	-8.9351605957	-0.344765039063	30.5029411765	0.00919295560211	-0.0122572741361	0.022915773385	-1.08e-05	0.0	-2.16e-05
1.786	4.12520946045	-8.97825622559	-0.203507141113	30.5970588235	0.00959264932394	-0.012656967858	0.0295773354155	-1.44e-05	-6e-07	-2.04e-05
1.796	4.05098920898	-8.94952580566	-0.208295544434	30.5029411765	0.00799387443662	-0.015055130189	0.0282450230094	-1.35e-05	-3e-07	-2.37e-05
1.806	4.06535441895	-8.93994899902	-0.280121594238	30.5970588235	0.00279785605282	-0.0199846860915	0.0173200612793	-1.17e-05	9e-07	-2.19e-05
1.816	4.05817181396	-9.04050546875	-0.296881005859	30.5970588235	-0.000532924962441	-0.0215834609789	-0.00546248086502	-1.23e-05	1.5e-06	-2.25e-05
1.826	4.06535441895	-8.99022723389	-0.198718737793	30.5970588235	-0.00253139357159	-0.0285114854906	-0.0203843798134	-1.17e-05	1.5e-06	-2.13e-05
1.836	4.08690223389	-8.89206496582	-0.263362182617	30.6911764706	-0.00626186830868	-0.031442572784	-0.0217166922195	-1.26e-05	0.0	-2.1e-05
1.846	4.07014282227	-8.88488236084	-0.251391174316	30.5029411765	-0.00799387443662	-0.0322419602277	-0.0163874425951	-1.32e-05	6e-07	-2.1e-05
1.856	4.12042105713	-8.93994899902	-0.234631762695	30.5029411765	-0.000266462481221	-0.0270459418439	-0.00492955590258	-1.35e-05	9e-07	-2.07e-05
1.866	4.12760366211	-8.89206496582	-0.265756384277	30.5029411765	0.00439663094014	-0.0206508422946	0.0051960183838	-1.29e-05	9e-07	-2.25e-05
1.875	4.12042105713	-8.91361278076	-0.351947644043	30.5970588235	0.00399693721831	-0.0155880551514	0.0171868300387	-1.5e-05	6e-07	-2.16e-05
1.886	4.05817181396	-8.947131604	-0.294486804199	30.5970588235	0.00959264932394	-0.0186523736854	0.0253139357159	-1.41e-05	3e-07	-2.25e-05
1.896	4.09887324219	-8.96628521729	-0.213083947754	30.5970588235	0.00719448699295	-0.0131898928204	0.0311761103028	-1.23e-05	1.5e-06	-2.31e-05
1.906	4.06535441895	-8.99740983887	-0.282515795898	30.6911764706	0.00772741195539	-0.0143889739859	0.0222496171819	-1.41e-05	9e-07	-2.43e-05
1.915	4.06774862061	-8.92797799072	-0.205901342773	30.6911764706	0.00413016845892	-0.0178529862418	0.0119908116549	-1.29e-05	1.5e-06	-2.31e-05
1.926	4.09887324219	-8.947131604	-0.172382519531	30.5970588235	0.00013323124061	-0.0253139357159	-0.00106584992488	-1.29e-05	9e-07	-2.25e-05
1.936	4.0318355957	-8.91600698242	-0.323217224121	30.5029411765	-0.00306431853404	-0.025980091919	-0.0118575804143	-1.41e-05	-3e-07	-2.13e-05
1.945	4.08929643555	-8.89685336914	-0.30406361084	30.5970588235	-0.00293108729343	-0.0311761103028	-0.0213169984976	-1.32e-05	2.4e-06	-2.22e-05
1.955	4.16591088867	-8.97825622559	-0.328005627441	30.5970588235	-0.00199846860915	-0.0305099540997	-0.018119448723	-1.26e-05	-6e-07	-2.34e-05
1.966	4.15633408203	-8.93037219238	-0.356736047363	30.5970588235	-0.0013323124061	-0.0241148545505	-0.00719448699295	-1.05e-05	1.5e-06	-2.25e-05
1.976	4.13478626709	-8.947131604	-0.244208569336	30.5970588235	0.00239816233098	-0.0199846860915	0.00586217458685	-1.32e-05	6e-07	-2.28e-05
1.985	4.08690223389	-8.9351605957	-0.318428820801	30.5970588235	0.00626186830868	-0.0195849923697	0.0147886677077	-1.17e-05	9e-07	-2.19e-05
1.995	4.15633408203	-8.95192000732	-0.265756384277	30.5970588235	0.00799387443662	-0.0122572741361	0.0217166922195	-1.32e-05	-2.4e-06	-2.04e-05
2.006	4.09887324219	-8.8992475708	-0.282515795898	30.5029411765	0.007860643196	-0.0138560490235	0.025980091919	-1.29e-05	1.5e-06	-2.13e-05
2.016	4.12520946045	-8.97107362061	-0.181959326172	30.5970588235	0.00692802451173	-0.0170535987981	0.0214502297383	-1.2e-05	2.4e-06	-2.16e-05
2.025	4.12999786377	-8.99262143555	-0.263362182617	30.5970588235	0.00333078101526	-0.0189188361667	0.0114578866925	-1.38e-05	1.8e-06	-2.1e-05
2.035	4.02944139404	-8.9591026123	-0.117315881348	30.5970588235	0.00199846860915	-0.0253139357159	-0.000532924962441	-1.26e-05	0.0	-1.98e-05
2.045	4.09169063721	-8.96628521729	-0.320823022461	30.5970588235	-0.00559571210563	-0.0287779479718	-0.0170535987981	-1.29e-05	3e-07	-2.19e-05
2.056	4.13478626709	-8.93276639404	-0.30166940918	30.5970588235	-0.00373047473709	-0.029044410453	-0.0202511485728	-1.29e-05	-3e-07	-2.25e-05
2.065	4.10126744385	-8.94234320068	-0.270544787598	30.5970588235	-0.00333078101526	-0.0277120980469	-0.0139892802641	-1.23e-05	-3e-07	-2.19e-05
2.075	4.15154567871	-8.92558378906	-0.339976635742	30.5970588235	0.00266462481221	-0.0261133231596	-0.000532924962441	-1.26e-05	1.8e-06	-2.16e-05
2.085	4.08690223389	-8.94952580566	-0.30406361084	30.5970588235	0.00359724349648	-0.0213169984976	0.00799387443662	-1.32e-05	0.0	-2.22e-05
2.096	4.11323845215	-8.9231895874	-0.263362182617	30.5970588235	0.00626186830868	-0.0165206738357	0.0118575804143	-1.32e-05	-6e-07	-2.16e-05
2.105	4.15154567871	-8.90643017578	-0.232237561035	30.5970588235	0.007860643196	-0.0139892802641	0.0178529862418	-1.14e-05	-1.8e-06	-2.16e-05
2.115	4.03662399902	-8.9112185791	-0.248996972656	30.5029411765	0.00759418071478	-0.0159877488732	0.022915773385	-1.32e-05	6e-07	-2.16e-05
2.125	4.08690223389	-8.90403597412	-0.337582434082	30.5970588235	0.00759418071478	-0.0189188361667	0.0227825421444	-1.11e-05	3e-07	-2.25e-05
2.135	4.09408483887	-8.90643017578	-0.251391174316	30.5970588235	0.00466309342136	-0.0206508422946	0.0131898928204	-1.32e-05	0.0	-2.22e-05
2.145	4.07493122559	-8.97825622559	-0.213083947754	30.5970588235	0.0013323124061	-0.0254471669566	-0.00159877488732	-1.23e-05	9e-07	-2.31e-05
2.155	4.10366164551	-8.98304462891	-0.270544787598	30.6911764706	0.0013323124061	-0.0309096478216	-0.0147886677077	-1.29e-05	-3e-07	-2.13e-05
2.165	4.11323845215	-8.88967076416	-0.280121594238	30.5970588235	-0.00399693721831	-0.0319754977465	-0.0195849923697	-1.2e-05	1.2e-06	-2.22e-05
2.174	4.09887324219	-8.88248815918	-0.251391174316	30.5970588235	-0.00546248086502	-0.0303767228591	-0.0111914242113	-1.2e-05	0.0	-2.04e-05
2.185	4.17548769531	-8.90882437744	-0.330399829102	30.6911764706	0.00572894334624	-0.0306431853404	-0.00373047473709	-1.17e-05	-3e-07	-2.19e-05
2.195	4.07014282227	-8.93994899902	-0.241814367676	30.5970588235	0.00333078101526	-0.0193185298885	0.00439663094014	-1.35e-05	-9e-07	-2.13e-05
2.205	4.05338341064	-8.91600698242	-0.270544787598	30.5970588235	0.0051960183838	-0.0218499234601	0.0119908116549	-1.26e-05	6e-07	-2.28e-05
2.214	4.07732542725	-8.96149681396	-0.234631762695	30.5970588235	0.00945941808333	-0.0166539050763	0.0223828484225	-1.23e-05	1.5e-06	-2.13e-05
2.225	4.13478626709	-8.90643017578	-0.229843359375	30.5970588235	0.00719448699295	-0.0153215926702	0.0321087289871	-1.32e-05	6e-07	-2.16e-05
2.235	4.08450803223	-8.98783303223	-0.232237561035	30.6911764706	0.00892649312089	-0.0173200612793	0.0249142419941	-1.32e-05	1.2e-06	-2.16e-05
2.245	4.08929643555	-8.8872765625	-0.287304199219	30.5970588235	0.0038637059777	-0.0178529862418	0.0118575804143	-1.23e-05	-3e-07	-2.19e-05
2.254	4.13957467041	-8.90643017578	-0.284909997559	30.6911764706	-0.00119908116549	-0.0273124043251	-0.0113246554519	-1.38e-05	0.0	-2.16e-05
2.265	4.08690223389	-8.90643017578	-0.215478149414	30.6911764706	-0.000666156203051	-0.0274456355657	-0.0198514548509	-1.38e-05	1.2e-06	-2.28e-05
2.275	4.12999786377	-8.84657513428	-0.246602770996	30.5970588235	-0.00746094947417	-0.0277120980469	-0.022915773385	-1.29e-05	1.5e-06	-2.25e-05
2.285	4.24013114014	-8.91361278076	-0.30406361084	30.6911764706	0.0	-0.0297105666561	-0.0159877488732	-1.23e-05	1.5e-06	-2.25e-05
2.294	4.18506450195	-8.89685336914	-0.30885201416	30.5970588235	-0.000799387443662	-0.0277120980469	-0.00879326188028	-1.32e-05	1.2e-06	-2.1e-05
2.305	4.21618912354	-8.93276639404	-0.30406361084	30.6911764706	0.0038637059777	-0.0247810107535	0.000932618684272	-1.26e-05	1.2e-06	-2.16e-05
2.315	4.13478626709	-8.88967076416	-0.253785375977	30.5970588235	-0.000266462481221	-0.0159877488732	0.0151883614296	-1.29e-05	-3e-07	-2.25e-05
2.324	4.16351668701	-8.95192000732	-0.361524450684	30.6911764706	0.0101255742864	-0.0167871363169	0.0247810107535	-1.26e-05	0.0	-2.1e-05
2.334	4.09169063721	-8.9112185791	-0.251391174316	30.7852941176	0.01092496173	-0.00945941808333	0.0287779479718	-1.38e-05	6e-07	-2.04e-05
2.344	4.09887324219	-8.9231895874	-0.3064578125	30.6911764706	0.00732771823356	-0.0207840735352	0.0238483920692	-1.35e-05	3e-07	-2.07e-05
2.355	4.09408483887	-8.93276639404	-0.162805712891	30.6911764706	0.0051960183838	-0.0183859112042	0.0110581929707	-1.26e-05	1.8e-06	-2.28e-05
2.364	4.14436307373	-8.9231895874	-0.205901342773	30.5970588235	-0.00159877488732	-0.0250474732347	-0.000399693721831	-1.2e-05	6e-07	-2.1e-05
2.374	4.13239206543	-8.947131604	-0.227449157715	30.6911764706	-0.000666156203051	-0.0231822358662	-0.0141225115047	-1.23e-05	-2.1e-06	-2.31e-05
2.384	4.17548769531	-8.91840118408	-0.323217224121	30.6911764706	-0.00546248086502	-0.0317090352652	-0.0221163859413	-1.17e-05	1.5e-06	-2.25e-05
2.395	4.16830509033	-8.88009395752	-0.282515795898	30.5970588235	-0.00413016845892	-0.0327748851901	-0.0183859112042	-1.11e-05	9e-07	-2.31e-05
2.404	4.21618912354	-8.9591026123	-0.330399829102	30.6911764706	-0.00159877488732	-0.0269127106033	-0.010258805527	-1.14e-05	1.2e-06	-2.22e-05
2.414	4.17788189697	-8.84178673096	-0.351947644043	30.6911764706	0.00692802451173	-0.0242480857911	0.00106584992488	-1.26e-05	0.0	-2.16e-05
2.424	4.18506450195	-8.9231895874	-0.30166940918	30.6911764706	0.00732771823356	-0.0185191424448	0.010258805527	-1.29e-05	-9e-07	-2.19e-05
2.435	4.17069929199	-8.90643017578	-0.282515795898	30.5970588235	0.00879326188028	-0.010258805527	0.0218499234601	-1.14e-05	0.0	-2.1e-05
2.444	4.20182391357	-8.8872765625	-0.337582434082	30.7852941176	0.00945941808333	-0.0174532925199	0.029044410453	-1.23e-05	1.5e-06	-2.19e-05
2.454	4.10845004883	-8.8872765625	-0.215478149414	30.6911764706	0.007860643196	-0.0142557427453	0.02837825425	-1.2e-05	1.2e-06	-2.34e-05
2.464	4.05098920898	-8.93994899902	-0.292092602539	30.7852941176	0.0051960183838	-0.0161209801138	0.0159877488732	-1.17e-05	3e-07	-2.31e-05
2.475	4.14915147705	-8.8753055542	-0.246602770996	30.6911764706	0.00413016845892	-0.0249142419941	0.00013323124061	-1.17e-05	-3e-07	-2.19e-05
2.484	4.16591088867	-8.95431420898	-0.248996972656	30.6911764706	-0.00213169984976	-0.0289111792124	-0.0117243491737	-1.41e-05	3e-07	-2.25e-05
2.494	4.15154567871	-8.91840118408	-0.272938989258	30.6911764706	-0.00146554364671	-0.0279785605282	-0.0146554364671	-1.32e-05	0.0	-2.04e-05
2.504	4.14675727539	-8.87769975586	-0.270544787598	30.5970588235	-0.0038637059777	-0.0301102603779	-0.0149218989483	-1.29e-05	-1.5e-06	-2.31e-05
2.513	4.14436307373	-8.92797799072	-0.316034619141	30.6911764706	-0.00119908116549	-0.0239816233098	-0.0113246554519	-1.29e-05	3e-07	-2.19e-05
2.524	4.16830509033	-8.8992475708	-0.325611425781	30.7852941176	0.00319754977465	-0.0247810107535	-0.0038637059777	-1.26e-05	-6e-07	-2.28e-05
2.534	4.18267030029	-8.91361278076	-0.342370837402	30.6911764706	0.010258805527	-0.0189188361667	0.010258805527	-1.38e-05	1.2e-06	-2.28e-05
2.544	4.20421811523	-8.93994899902	-0.332794030762	30.6911764706	0.00826033691784	-0.0155880551514	0.0202511485728	-1.26e-05	0.0	-2.34e-05
2.553	4.16830509033	-8.8872765625	-0.260967980957	30.6911764706	0.0106584992488	-0.015055130189	0.0323751914683	-1.11e-05	-3e-07	-2.19e-05
2.564	4.17309349365	-8.91600698242	-0.222660754395	30.6911764706	0.0111914242113	-0.0137228177829	0.0294441041749	-1.08e-05	-6e-07	-2.22e-05
2.574	4.15872828369	-8.93994899902	-0.15562310791	30.6911764706	0.0105252680082	-0.0159877488732	0.0218499234601	-1.38e-05	-6e-07	-2.22e-05
2.584	4.11084425049	-8.96149681396	-0.272938989258	30.6911764706	0.0038637059777	-0.0219831547007	0.00626186830868	-1.14e-05	6e-07	-2.22e-05
2.593	4.16830509033	-8.88967076416	-0.30166940918	30.6911764706	0.00293108729343	-0.0238483920692	-0.000399693721831	-1.29e-05	9e-07	-2.19e-05
2.604	4.15154567871	-8.947131604	-0.31364041748	30.6911764706	-0.000932618684272	-0.030776416581	-0.0138560490235	-1.14e-05	-6e-07	-2.34e-05
2.614	4.13239206543	-8.9112185791	-0.292092602539	30.6911764706	-0.00333078101526	-0.0286447167312	-0.0189188361667	-1.41e-05	9e-07	-2.19e-05
2.624	4.17309349365	-8.88488236084	-0.260967980957	30.6911764706	-0.00866003063967	-0.02837825425	-0.020517611054	-1.35e-05	-9e-07	-2.25e-05
2.633	4.21140072021	-8.87051715088	-0.29927520752	30.7852941176	-0.00119908116549	-0.0270459418439	-0.0149218989483	-1.29e-05	9e-07	-2.19e-05
2.643	4.17548769531	-8.8154505127	-0.232237561035	30.5970588235	0.00359724349648	-0.0237151608286	0.00146554364671	-1.17e-05	9e-07	-2.13e-05
2.654	4.2185833252	-8.88967076416	-0.328005627441	30.7852941176	0.0065283307899	-0.0183859112042	0.0194517611291	-1.29e-05	3e-07	-2.25e-05
2.664	4.20661231689	-8.90882437744	-0.234631762695	30.6911764706	0.00932618684272	-0.0122572741361	0.0322419602277	-1.32e-05	-6e-07	-2.22e-05
2.673	4.14675727539	-8.92079538574	-0.229843359375	30.6911764706	0.00972588056455	-0.015055130189	0.0295773354155	-1.2e-05	0.0	-2.1e-05
2.683	4.15154567871	-8.95431420898	-0.287304199219	30.6911764706	0.00826033691784	-0.015055130189	0.0239816233098	-1.29e-05	3e-07	-2.19e-05
2.694	4.15154567871	-8.94473740234	-0.251391174316	30.7852941176	0.00759418071478	-0.021183767257	0.0147886677077	-1.23e-05	3e-07	-2.25e-05
2.703	4.09169063721	-9.00698664551	-0.258573779297	30.6911764706	-0.000266462481221	-0.0219831547007	-0.000799387443662	-1.29e-05	3e-07	-2.25e-05
2.713	4.17788189697	-8.96867941895	-0.316034619141	30.7852941176	-0.00399693721831	-0.0269127106033	-0.0138560490235	-1.23e-05	9e-07	-2.13e-05
2.723	4.13478626709	-8.90403597412	-0.205901342773	30.7852941176	-0.00732771823356	-0.0282450230094	-0.0219831547007	-1.35e-05	9e-07	-2.31e-05
2.734	4.17788189697	-8.947131604	-0.351947644043	30.6911764706	-0.00426339969953	-0.0325084227089	-0.0210505360164	-1.11e-05	-9e-07	-2.13e-05
2.743	4.18985290527	-8.93276639404	-0.323217224121	30.6911764706	0.00013323124061	-0.0249142419941	-0.00546248086502	-1.14e-05	0.0	-2.16e-05
2.753	4.19942971191	-8.8633345459	-0.363918652344	30.6911764706	0.00373047473709	-0.022915773385	0.00599540582746	-1.23e-05	1.5e-06	-2.25e-05
2.763	4.10126744385	-8.85854614258	-0.220266552734	30.6911764706	0.00253139357159	-0.020517611054	0.0186523736854	-1.17e-05	3e-07	-2.25e-05
2.774	4.16351668701	-8.88009395752	-0.241814367676	30.6911764706	0.00799387443662	-0.0159877488732	0.0234486983474	-1.41e-05	3e-07	-2.25e-05
2.783	4.18506450195	-8.90643017578	-0.31124621582	30.6911764706	0.00626186830868	-0.0163874425951	0.0249142419941	-1.23e-05	9e-07	-2.31e-05
2.793	4.21379492187	-8.91840118408	-0.282515795898	30.6911764706	0.00479632466197	-0.018119448723	0.0165206738357	-1.26e-05	1.2e-06	-2.28e-05
2.803	4.12281525879	-8.91600698242	-0.220266552734	30.6911764706	0.00346401225587	-0.0202511485728	0.00772741195539	-1.29e-05	9e-07	-2.25e-05
2.813	4.16112248535	-8.8992475708	-0.263362182617	30.7852941176	-0.00253139357159	-0.0258468606784	-0.00226493109037	-1.29e-05	-3e-07	-2.07e-05
2.823	4.19464130859	-8.90882437744	-0.227449157715	30.7852941176	-0.000666156203051	-0.0237151608286	-0.00586217458685	-1.32e-05	0.0	-2.16e-05
2.833	4.19703551025	-8.91840118408	-0.337582434082	30.7852941176	-0.000266462481221	-0.0257136294378	-0.00866003063967	-1.23e-05	1.5e-06	-2.19e-05
2.843	4.15633408203	-8.99022723389	-0.318428820801	30.6911764706	0.000399693721831	-0.0266462481221	-0.00919295560211	-1.17e-05	3e-07	-2.37e-05
2.853	4.29998618164	-8.87769975586	-0.284909997559	30.7852941176	0.00239816233098	-0.0227825421444	-0.00932618684272	-1.17e-05	3e-07	-2.25e-05
2.863	4.16351668701	-8.9231895874	-0.275333190918	30.7852941176	0.00106584992488	-0.0215834609789	0.00293108729343	-1.14e-05	-6e-07	-2.16e-05
2.873	4.20182391357	-8.90643017578	-0.359130249023	30.7852941176	0.000932618684272	-0.0245145482723	0.0107917304894	-1.17e-05	-3e-07	-2.25e-05
2.883	4.23534273682	-8.84418093262	-0.229843359375	30.6911764706	0.00852679939906	-0.0179862174824	0.0163874425951	-1.26e-05	6e-07	-2.04e-05
2.892	4.19224710693	-8.8872765625	-0.31124621582	30.6911764706	0.00333078101526	-0.0218499234601	0.0147886677077	-1.32e-05	0.0	-2.1e-05
2.903	4.24013114014	-8.93037219238	-0.210689746094	30.7852941176	0.00492955590258	-0.0210505360164	0.0103920367676	-1.44e-05	0.0	-2.28e-05
2.913	4.18985290527	-8.8992475708	-0.325611425781	30.6911764706	0.00346401225587	-0.0183859112042	0.01092496173	-1.32e-05	0.0	-2.1e-05
2.923	4.22097752686	-8.95431420898	-0.248996972656	30.7852941176	0.00333078101526	-0.0219831547007	0.0129234303392	-1.17e-05	1.5e-06	-2.25e-05
2.932	4.20182391357	-8.93276639404	-0.275333190918	30.7852941176	-0.000399693721831	-0.0215834609789	0.0101255742864	-1.29e-05	3e-07	-2.25e-05
2.942	4.17788189697	-8.9591026123	-0.289698400879	30.7852941176	0.000932618684272	-0.0234486983474	-0.000266462481221	-1.17e-05	-3e-07	-2.25e-05
2.953	4.16830509033	-8.90403597412	-0.31124621582	30.6911764706	0.00279785605282	-0.0279785605282	-0.0131898928204	-1.11e-05	3.3e-06	-2.25e-05
2.963	4.17548769531	-8.84418093262	-0.318428820801	30.6911764706	0.00106584992488	-0.0295773354155	-0.0158545176326	-1.14e-05	6e-07	-2.1e-05
2.972	4.18985290527	-8.8393925293	-0.330399829102	30.6911764706	-0.00306431853404	-0.0286447167312	-0.0051960183838	-1.38e-05	1.2e-06	-2.16e-05
2.982	4.20421811523	-8.86572874756	-0.296881005859	30.7852941176	0.00239816233098	-0.0263797856408	0.00559571210563	-1.26e-05	1.2e-06	-2.16e-05
2.993	4.25210214844	-8.8992475708	-0.287304199219	30.7852941176	0.00426339969953	-0.0182526799636	0.00599540582746	-1.32e-05	1.2e-06	-2.1e-05
3.003	4.21379492187	-8.88248815918	-0.280121594238	30.7852941176	0.00253139357159	-0.0158545176326	0.00839356815845	-1.29e-05	1.5e-06	-2.07e-05
3.012	4.23773693848	-8.8633345459	-0.287304199219	30.6911764706	0.00666156203051	-0.018119448723	0.0165206738357	-1.17e-05	9e-07	-2.25e-05
3.022	4.15154567871	-8.8753055542	-0.323217224121	30.6911764706	0.0106584992488	-0.0166539050763	0.0255803981972	-1.29e-05	-9e-07	-2.19e-05
3.033	4.20182391357	-8.9231895874	-0.234631762695	30.6911764706	0.00492955590258	-0.0138560490235	0.0247810107535	-1.2e-05	6e-07	-2.16e-05
3.043	4.17069929199	-8.96628521729	-0.227449157715	30.7852941176	0.00532924962441	-0.0190520674073	0.0121240428955	-1.2e-05	1.2e-06	-2.22e-05
3.052	4.2425253418	-8.90164177246	-0.260967980957	30.7852941176	-0.000799387443662	-0.0279785605282	-0.00559571210563	-1.2e-05	2.4e-06	-2.22e-05
3.062	4.19224710693	-8.89206496582	-0.229843359375	30.6911764706	-0.000799387443662	-0.0309096478216	-0.0135895865422	-1.08e-05	1.8e-06	-2.4e-05
3.073	4.15872828369	-8.84418093262	-0.241814367676	30.7852941176	-0.00306431853404	-0.0313093415434	-0.0155880551514	-1.26e-05	1.2e-06	-2.04e-05
3.082	4.20661231689	-8.81066210937	-0.328005627441	30.6911764706	0.000666156203051	-0.0246477795129	-0.0125237366174	-1.38e-05	0.0	-2.22e-05
3.092	4.2784383667	-8.86094034424	-0.275333190918	30.6911764706	0.00306431853404	-0.0227825421444	-0.0065283307899	-1.26e-05	6e-07	-2.22e-05
3.102	4.26886156006	-8.88488236084	-0.330399829102	30.7852941176	0.00293108729343	-0.0230490046256	0.00306431853404	-1.14e-05	-6e-07	-2.16e-05
3.112	4.21140072021	-8.91600698242	-0.287304199219	30.6911764706	0.00852679939906	-0.0197182236103	0.0154548239108	-1.29e-05	-3e-07	-2.25e-05
3.122	4.2185833252	-8.84896933594	-0.237025964355	30.7852941176	0.00892649312089	-0.0130566615798	0.0250474732347	-1.35e-05	1.5e-06	-2.19e-05
3.132	4.17788189697	-8.91840118408	-0.289698400879	30.7852941176	0.00879326188028	-0.0145222052265	0.0278453292875	-1.17e-05	-3e-07	-2.13e-05
3.142	4.19942971191	-8.88488236084	-0.337582434082	30.7852941176	0.0107917304894	-0.0159877488732	0.0257136294378	-1.38e-05	1.2e-06	-2.16e-05
3.152	4.22097752686	-8.88248815918	-0.337582434082	30.6911764706	0.00626186830868	-0.0154548239108	0.0131898928204	-1.38e-05	6e-07	-2.1e-05
3.162	4.16351668701	-8.88488236084	-0.292092602539	30.7852941176	0.0051960183838	-0.0202511485728	0.000666156203051	-1.08e-05	1.8e-06	-2.16e-05
3.172	4.2664673584	-8.88967076416	-0.232237561035	30.7852941176	0.00239816233098	-0.0285114854906	-0.00759418071478	-1.26e-05	1.2e-06	-2.16e-05
3.182	4.22576593018	-8.8872765625	-0.325611425781	30.7852941176	0.000666156203051	-0.0266462481221	-0.0146554364671	-1.08e-05	1.2e-06	-1.98e-05
3.192	4.23294853516	-8.89685336914	-0.260967980957	30.6911764706	0.000399693721831	-0.031442572784	-0.0163874425951	-1.32e-05	1.2e-06	-2.22e-05
3.202	4.23534273682	-8.95192000732	-0.342370837402	30.7852941176	0.00119908116549	-0.0269127106033	-0.0129234303392	-1.23e-05	3e-07	-2.13e-05
3.212	4.25928475342	-8.8753055542	-0.246602770996	30.6911764706	0.00706125575234	-0.0193185298885	-0.00226493109037	-1.2e-05	1.2e-06	-2.22e-05
3.222	4.29280357666	-8.84657513428	-0.258573779297	30.8794117647	0.00866003063967	-0.00772741195539	0.0193185298885	-1.23e-05	3e-07	-2.13e-05
3.232	4.19942971191	-8.84657513428	-0.31124621582	30.7852941176	0.0145222052265	-0.0134563553016	0.0524931088004	-1.32e-05	1.2e-06	-2.28e-05
3.241	4.23294853516	-8.97346782227	-0.289698400879	30.7852941176	0.00866003063967	-0.0115911179331	0.0672817765082	-1.35e-05	2.1e-06	-2.13e-05
3.252	4.14675727539	-8.92079538574	-0.232237561035	30.6911764706	0.00692802451173	-0.0147886677077	0.0474303216573	-1.05e-05	3e-07	-2.25e-05
3.262	4.16112248535	-8.98304462891	-0.320823022461	30.7852941176	0.00266462481221	-0.0271791730845	-0.00466309342136	-1.23e-05	2.1e-06	-2.07e-05
3.271	4.19942971191	-8.92558378906	-0.31124621582	30.7852941176	-0.00253139357159	-0.0347733537993	-0.0548912711314	-1.17e-05	1.5e-06	-2.13e-05
3.281	4.24970794678	-8.84657513428	-0.265756384277	30.7852941176	-0.00945941808333	-0.038637059777	-0.0695467075986	-1.14e-05	-6e-07	-2.1e-05
3.292	4.29759197998	-8.85375773926	-0.244208569336	30.7852941176	-0.0142557427453	-0.0391699847394	-0.0448989280857	-1.44e-05	2.4e-06	-2.04e-05
3.302	4.2784383667	-8.82981572266	-0.380678063965	30.7852941176	-0.00866003063967	-0.0383705972958	-0.0106584992488	-1.32e-05	6e-07	-2.1e-05
3.311	4.2425253418	-8.8154505127	-0.490811340332	30.7852941176	0.0258468606784	0.0271791730845	0.0451653905669	-1.29e-05	3e-07	-2.13e-05
3.321	4.19703551025	-8.91840118408	-0.244208569336	30.8794117647	0.0435666156796	0.029044410453	0.0245145482723	-1.32e-05	-6e-07	-2.22e-05
3.332	4.26886156006	-8.85615194092	-0.165199914551	30.6911764706	0.0285114854906	-0.0243813170317	0.0261133231596	-1.2e-05	6e-07	-2.22e-05
3.342	4.26886156006	-8.78911429443	-0.387860668945	30.7852941176	0.00879326188028	-0.0243813170317	0.113646248241	-1.17e-05	9e-07	-2.31e-05
3.351	4.17069929199	-8.96628521729	-0.167594116211	30.7852941176	0.00759418071478	0.000532924962441	0.126436447339	-1.08e-05	1.2e-06	-2.34e-05
3.361	4.09169063721	-9.02135185547	-0.126892687988	30.7852941176	-0.0195849923697	-0.033840735115	0.0325084227089	-1.35e-05	9e-07	-2.19e-05
3.372	4.15154567871	-9.02614025879	-0.253785375977	30.7852941176	-0.0242480857911	-0.0666156203051	-0.0944609495927	-1.17e-05	2.7e-06	-2.19e-05
3.382	4.22097752686	-8.80587370605	-0.30885201416	30.8794117647	-0.0145222052265	-0.0531592650035	-0.158545176326	-1.14e-05	0.0	-2.22e-05
3.391	4.34547601318	-8.71968244629	-0.347159240723	30.7852941176	-0.0106584992488	-0.0345068913181	-0.114578866925	-1.2e-05	0.0	-2.1e-05
3.401	4.34547601318	-8.73165345459	-0.344765039063	30.6911764706	-0.00692802451173	-0.0377044410927	-0.0253139357159	-1.26e-05	-1.2e-06	-2.28e-05
3.411	4.36462962646	-8.81066210937	-0.296881005859	30.7852941176	0.0051960183838	-0.0189188361667	0.0531592650035	-1.23e-05	9e-07	-2.13e-05
3.422	4.22097752686	-8.80347950439	-0.325611425781	30.8794117647	0.0107917304894	-0.00359724349648	0.072477794892	-1.2e-05	1.2e-06	-1.98e-05
3.431	4.19703551025	-8.87291135254	-0.284909997559	30.7852941176	0.0213169984976	-0.00333078101526	0.0567565085	-1.17e-05	9e-07	-2.13e-05
3.441	4.20421811523	-8.9112185791	-0.289698400879	30.8794117647	0.0197182236103	-0.0051960183838	0.0451653905669	-1.23e-05	3e-07	-2.31e-05
3.451	4.20421811523	-8.9231895874	-0.292092602539	30.7852941176	0.0162542113545	-0.00319754977465	0.0395696784612	-1.17e-05	-3e-07	-2.19e-05
3.461	4.14675727539	-8.9112185791	-0.222660754395	30.6911764706	0.0103920367676	-0.00732771823356	0.0359724349648	-1.26e-05	6e-07	-2.28e-05
3.471	4.17548769531	-8.94952580566	-0.287304199219	30.7852941176	-0.000266462481221	-0.0243813170317	0.0191852986479	-1.32e-05	1.2e-06	-2.16e-05
3.481	4.2664673584	-8.947131604	-0.263362182617	30.6911764706	-0.00626186830868	-0.033840735115	-0.0139892802641	-1.41e-05	3e-07	-2.31e-05
3.491	4.18506450195	-8.83699832764	-0.375889660645	30.7852941176	-0.0111914242113	-0.0407687596267	-0.0436998469202	-1.29e-05	9e-07	-2.13e-05
3.501	4.32153399658	-8.83220992432	-0.325611425781	30.8794117647	-0.0114578866925	-0.0444992343638	-0.0560903522969	-1.32e-05	1.8e-06	-2.1e-05
3.511	4.3263223999	-8.83699832764	-0.399831677246	30.6911764706	-0.00985911180516	-0.0341071975962	-0.0466309342136	-1.23e-05	3e-07	-2.19e-05
3.521	4.28083256836	-8.83699832764	-0.325611425781	30.7852941176	0.00013323124061	-0.0271791730845	-0.0153215926702	-1.26e-05	0.0	-2.16e-05
3.531	4.26886156006	-8.77714328613	-0.29927520752	30.7852941176	0.007860643196	-0.018785604926	0.0206508422946	-1.26e-05	1.2e-06	-2.16e-05
3.54	4.28083256836	-8.82502731934	-0.342370837402	30.7852941176	0.0141225115047	-0.00759418071478	0.0480964778603	-1.14e-05	6e-07	-2.1e-05
3.551	4.18506450195	-8.827421521	-0.265756384277	30.7852941176	0.015055130189	-0.00399693721831	0.0582220521467	-1.17e-05	3e-07	-2.07e-05
3.561	4.20182391357	-8.97825622559	-0.270544787598	30.8794117647	0.0129234303392	-0.00279785605282	0.0494287902664	-1.26e-05	1.2e-06	-2.16e-05
3.571	4.26167895508	-8.87769975586	-0.198718737793	30.7852941176	0.0114578866925	-0.013323124061	0.0294441041749	-1.23e-05	1.5e-06	-2.25e-05
3.58	4.23534273682	-8.8872765625	-0.272938989258	30.7852941176	0.00306431853404	-0.0171868300387	0.00599540582746	-1.26e-05	6e-07	-2.28e-05
3.591	4.24970794678	-8.86812294922	-0.337582434082	30.7852941176	0.000799387443662	-0.0281117917688	-0.0115911179331	-1.08e-05	0.0	-2.1e-05
3.601	4.2664673584	-8.8513635376	-0.30166940918	30.7852941176	-0.00732771823356	-0.033174578912	-0.0274456355657	-1.26e-05	1.2e-06	-2.04e-05
3.611	4.23773693848	-8.86094034424	-0.31124621582	30.7852941176	-0.00879326188028	-0.0358392037242	-0.0333078101526	-1.17e-05	1.5e-06	-2.25e-05
3.62	4.27604416504	-8.8633345459	-0.323217224121	30.7852941176	-0.00253139357159	-0.0321087289871	-0.0287779479718	-1.35e-05	9e-07	-2.19e-05
3.631	4.27604416504	-8.79869110107	-0.284909997559	30.7852941176	0.00146554364671	-0.0254471669566	-0.0146554364671	-1.2e-05	1.2e-06	-2.28e-05
3.641	4.29998618164	-8.82263311768	-0.30166940918	30.7852941176	0.00612863706807	-0.0167871363169	0.0114578866925	-1.29e-05	9e-07	-2.19e-05
3.65	4.26886156006	-8.82023891602	-0.316034619141	30.8794117647	0.0123905053768	-0.0131898928204	0.0378376723333	-1.08e-05	1.2e-06	-2.22e-05
3.66	4.22576593018	-8.83699832764	-0.284909997559	30.8794117647	0.0122572741361	-0.00959264932394	0.0448989280857	-1.26e-05	-6e-07	-1.98e-05
3.671	4.23773693848	-8.91361278076	-0.325611425781	30.8794117647	0.0105252680082	-0.0101255742864	0.0378376723333	-1.14e-05	2.4e-06	-2.28e-05
3.681	4.3502644165	-8.87051715088	-0.246602770996	30.7852941176	0.00399693721831	-0.0153215926702	0.0186523736854	-1.29e-05	3e-07	-2.07e-05
3.69	4.13957467041	-8.84657513428	-0.263362182617	30.6911764706	0.00506278714319	-0.0263797856408	0.0	-1.11e-05	2.1e-06	-2.13e-05
3.7	4.27604416504	-8.8872765625	-0.241814367676	30.8794117647	-0.00452986218075	-0.0265130168814	-0.015721286392	-1.29e-05	9e-07	-2.19e-05
3.71	4.2544963501	-8.86094034424	-0.270544787598	30.8794117647	-0.0090597243615	-0.0318422665059	-0.0197182236103	-1.08e-05	1.2e-06	-2.16e-05
3.721	4.27364996338	-8.82502731934	-0.296881005859	30.8794117647	-0.00479632466197	-0.0299770291373	-0.0175865237606	-1.26e-05	6e-07	-2.22e-05
3.73	4.30716878662	-8.84657513428	-0.265756384277	30.7852941176	-0.00013323124061	-0.0278453292875	-0.0137228177829	-1.35e-05	-9e-07	-2.19e-05
3.74	4.27604416504	-8.93037219238	-0.380678063965	30.8794117647	0.00239816233098	-0.0238483920692	-0.00572894334624	-9.9e-06	3e-07	-2.31e-05
3.75	4.24491954346	-8.80826790771	-0.421379492187	30.8794117647	0.00599540582746	-0.0203843798134	0.00466309342136	-1.11e-05	-9e-07	-2.25e-05
3.761	4.29280357666	-8.8393925293	-0.330399829102	30.8794117647	0.00732771823356	-0.0202511485728	0.0138560490235	-1.17e-05	1.5e-06	-2.07e-05
3.77	4.30716878662	-8.87291135254	-0.3064578125	30.7852941176	0.0101255742864	-0.0163874425951	0.0315758040246	-1.29e-05	3e-07	-2.13e-05
3.78	4.26167895508	-8.81305631104	-0.248996972656	30.8794117647	0.00945941808333	-0.0151883614296	0.0323751914683	-1.17e-05	9e-07	-2.25e-05
3.79	4.2185833252	-8.8753055542	-0.323217224121	30.7852941176	0.00466309342136	-0.015055130189	0.0230490046256	-1.17e-05	2.7e-06	-2.19e-05
3.801	4.21618912354	-8.88248815918	-0.280121594238	30.7852941176	0.00452986218075	-0.0182526799636	0.01092496173	-1.41e-05	3e-07	-2.31e-05
3.81	4.24731374512	-8.90164177246	-0.280121594238	30.8794117647	0.00253139357159	-0.0227825421444	-0.00306431853404	-1.29e-05	9e-07	-2.19e-05
3.82	4.18267030029	-8.8872765625	-0.241814367676	30.7852941176	-0.00106584992488	-0.0287779479718	-0.00319754977465	-1.08e-05	0.0	-2.04e-05
3.83	4.3263223999	-8.85854614258	-0.414196887207	30.7852941176	-0.00239816233098	-0.0269127106033	-0.0110581929707	-1.26e-05	1.2e-06	-2.22e-05
3.84	4.26886156006	-8.80826790771	-0.351947644043	30.8794117647	-0.00239816233098	-0.0302434916185	-0.0175865237606	-1.23e-05	3e-07	-2.25e-05
3.85	4.28083256836	-8.84657513428	-0.296881005859	30.7852941176	-0.00159877488732	-0.0282450230094	-0.018785604926	-1.02e-05	-6e-07	-2.34e-05
3.86	4.31195718994	-8.80108530273	-0.318428820801	30.8794117647	0.00413016845892	-0.0263797856408	-0.00759418071478	-9.9e-06	9e-07	-2.19e-05
3.87	4.33111080322	-8.82023891602	-0.284909997559	30.7852941176	0.00559571210563	-0.0202511485728	0.0163874425951	-1.26e-05	-6e-07	-1.98e-05
3.879	4.28083256836	-8.83460412598	-0.342370837402	30.7852941176	0.00666156203051	-0.0137228177829	0.0343736600774	-1.38e-05	1.2e-06	-2.22e-05
3.89	4.27604416504	-8.84657513428	-0.246602770996	30.8794117647	0.00972588056455	-0.007860643196	0.036238897446	-1.26e-05	6e-07	-2.22e-05
3.9	4.24491954346	-8.86572874756	-0.222660754395	30.8794117647	0.00826033691784	-0.0151883614296	0.0257136294378	-1.2e-05	6e-07	-2.22e-05
3.91	4.2544963501	-8.8393925293	-0.241814367676	30.7852941176	0.00479632466197	-0.0217166922195	0.00945941808333	-1.17e-05	1.5e-06	-2.19e-05
3.919	4.29280357666	-8.8992475708	-0.251391174316	30.8794117647	0.00146554364671	-0.0279785605282	-0.00293108729343	-1.35e-05	-9e-07	-2.31e-05
3.93	4.3143513916	-8.80347950439	-0.335188232422	30.8794117647	-0.00239816233098	-0.0274456355657	-0.01092496173	-1.32e-05	1.2e-06	-2.22e-05
3.94	4.2664673584	-8.83699832764	-0.332794030762	30.8794117647	-0.00253139357159	-0.02837825425	-0.0127901990986	-1.2e-05	0.0	-2.22e-05
3.95	4.30956298828	-8.8992475708	-0.30166940918	30.7852941176	-0.0013323124061	-0.0302434916185	-0.0131898928204	-1.08e-05	1.2e-06	-2.28e-05
3.959	4.29998618164	-8.79629689941	-0.268150585937	30.8794117647	-0.000399693721831	-0.0250474732347	-0.00959264932394	-1.11e-05	3e-07	-2.31e-05
3.97	4.35984122314	-8.87291135254	-0.318428820801	30.8794117647	0.00599540582746	-0.0195849923697	0.00359724349648	-1.11e-05	3e-07	-2.19e-05
3.98	4.28083256836	-8.84657513428	-0.342370837402	30.8794117647	0.0106584992488	-0.0165206738357	0.0193185298885	-1.14e-05	6e-07	-2.22e-05
3.99	4.29519777832	-8.77714328613	-0.239420166016	30.8794117647	0.0051960183838	-0.0107917304894	0.0295773354155	-1.14e-05	6e-07	-2.22e-05
3.999	4.2784383667	-8.8513635376	-0.351947644043	30.8794117647	0.0115911179331	-0.018119448723	0.0279785605282	-1.14e-05	0.0	-2.16e-05
4.009	4.22816013184	-8.80587370605	-0.280121594238	30.7852941176	0.0038637059777	-0.0178529862418	0.0201179173321	-1.26e-05	1.2e-06	-2.28e-05
4.02	4.28322677002	-8.82023891602	-0.347159240723	30.8794117647	0.00293108729343	-0.0189188361667	0.0121240428955	-1.23e-05	3e-07	-2.07e-05
4.029	4.29998618164	-8.83460412598	-0.296881005859	30.8794117647	0.00559571210563	-0.0217166922195	0.00426339969953	-1.08e-05	0.0	-2.22e-05
4.039	4.34068760986	-8.85375773926	-0.383072265625	30.7852941176	0.00306431853404	-0.0250474732347	0.00173200612793	-1.32e-05	1.2e-06	-2.04e-05
4.049	4.25689055176	-8.88488236084	-0.31124621582	30.8794117647	0.00199846860915	-0.0254471669566	-0.00226493109037	-1.26e-05	1.2e-06	-2.04e-05
4.06	4.29280357666	-8.85375773926	-0.325611425781	30.8794117647	-0.00293108729343	-0.0279785605282	-0.0139892802641	-1.17e-05	-9e-07	-2.13e-05
4.069	4.29998618164	-8.75080706787	-0.292092602539	30.8794117647	-0.00293108729343	-0.0302434916185	-0.0158545176326	-1.11e-05	2.1e-06	-2.19e-05
4.079	4.28562097168	-8.82023891602	-0.411802685547	30.7852941176	0.000266462481221	-0.0207840735352	0.000932618684272	-1.05e-05	-3e-07	-2.25e-05
4.089	4.31913979492	-8.82023891602	-0.260967980957	30.8794117647	0.007860643196	-0.018785604926	0.010258805527	-1.23e-05	9e-07	-2.31e-05
4.1	4.29519777832	-8.90403597412	-0.347159240723	30.8794117647	0.00586217458685	-0.0197182236103	0.0129234303392	-1.2e-05	0.0	-2.16e-05
4.109	4.32153399658	-8.83220992432	-0.277727392578	30.7852941176	0.00826033691784	-0.0167871363169	0.0169203675575	-1.17e-05	3e-07	-2.31e-05
4.119	4.24970794678	-8.82023891602	-0.263362182617	30.7852941176	0.00719448699295	-0.0169203675575	0.0195849923697	-1.23e-05	9e-07	-2.13e-05
4.129	4.3382934082	-8.76996068115	-0.325611425781	30.8794117647	0.00506278714319	-0.0190520674073	0.0179862174824	-1.2e-05	-6e-07	-2.04e-05
4.14	4.30477458496	-8.84178673096	-0.318428820801	30.8794117647	0.0051960183838	-0.0206508422946	0.0149218989483	-1.02e-05	0.0	-2.1e-05
4.149	4.23534273682	-8.85854614258	-0.335188232422	30.7852941176	0.00439663094014	-0.0170535987981	0.00732771823356	-1.17e-05	3e-07	-2.19e-05
4.159	4.2784383667	-8.84178673096	-0.325611425781	30.7852941176	0.00119908116549	-0.0231822358662	-0.00239816233098	-1.08e-05	6e-07	-2.22e-05
4.169	4.29519777832	-8.76996068115	-0.248996972656	30.7852941176	0.00106584992488	-0.0299770291373	-0.00892649312089	-1.29e-05	1.5e-06	-2.19e-05
4.179	4.26167895508	-8.8633345459	-0.239420166016	30.8794117647	-0.00159877488732	-0.0271791730845	-0.0125237366174	-1.2e-05	-6e-07	-2.22e-05
4.189	4.31674559326	-8.79150849609	-0.328005627441	30.7852941176	0.00253139357159	-0.0301102603779	-0.0114578866925	-1.2e-05	6e-07	-2.16e-05
4.199	4.39096584473	-8.78911429443	-0.294486804199	30.8794117647	0.00399693721831	-0.0262465544002	-0.00266462481221	-1.14e-05	1.2e-06	-2.22e-05
4.209	4.35265861816	-8.79869110107	-0.378283862305	30.8794117647	0.00399693721831	-0.0195849923697	0.00852679939906	-1.29e-05	3e-07	-2.13e-05
4.218	4.32392819824	-8.86572874756	-0.383072265625	30.7852941176	0.00692802451173	-0.0127901990986	0.0166539050763	-1.38e-05	6e-07	-2.22e-05
4.229	4.26407315674	-8.81784471436	-0.390254870605	30.8794117647	0.00839356815845	-0.0167871363169	0.0158545176326	-1.32e-05	6e-07	-2.1e-05
4.239	4.33350500488	-8.79869110107	-0.30406361084	30.8794117647	0.00639509954929	-0.0190520674073	0.0213169984976	-1.14e-05	1.2e-06	-2.34e-05
4.249	4.31195718994	-8.83460412598	-0.287304199219	30.8794117647	0.00426339969953	-0.0189188361667	0.022915773385	-1.2e-05	1.2e-06	-2.28e-05
4.258	4.32392819824	-8.8992475708	-0.246602770996	30.9735294118	0.0065283307899	-0.0221163859413	0.0146554364671	-1.11e-05	3e-07	-2.25e-05
4.269	4.29519777832	-8.8872765625	-0.356736047363	30.9735294118	0.00239816233098	-0.0210505360164	-0.000399693721831	-1.08e-05	6e-07	-2.1e-05
4.279	4.33111080322	-8.86094034424	-0.280121594238	30.8794117647	-0.00173200612793	-0.0294441041749	-0.0117243491737	-1.35e-05	3e-07	-2.13e-05
4.289	4.32153399658	-8.88488236084	-0.287304199219	30.8794117647	-0.0013323124061	-0.0267794793627	-0.00985911180516	-1.26e-05	0.0	-2.04e-05
4.298	4.32392819824	-8.86572874756	-0.289698400879	30.8794117647	-0.00186523736854	-0.0297105666561	-0.00013323124061	-1.47e-05	9e-07	-2.19e-05
4.308	4.30956298828	-8.79869110107	-0.395043273926	30.8794117647	0.00333078101526	-0.0210505360164	0.00319754977465	-1.26e-05	-6e-07	-2.28e-05
4.319	4.33111080322	-8.78193168945	-0.356736047363	30.8794117647	0.00333078101526	-0.0210505360164	0.00732771823356	-1.05e-05	9e-07	-2.25e-05
4.329	4.31674559326	-8.85375773926	-0.30406361084	30.8794117647	0.00226493109037	-0.0214502297383	0.00626186830868	-1.26e-05	6e-07	-2.16e-05
4.338	4.31674559326	-8.78911429443	-0.330399829102	30.8794117647	0.00173200612793	-0.0175865237606	0.0119908116549	-1.35e-05	-3e-07	-2.19e-05
4.348	4.33350500488	-8.86812294922	-0.292092602539	30.8794117647	0.0038637059777	-0.0175865237606	0.0167871363169	-1.32e-05	1.2e-06	-2.22e-05
4.359	4.24491954346	-9.56244143066	-1.71424838867	30.8794117647	0.423009188938	0.572494640902	-0.180395099786	-1.26e-05	0.0	-2.1e-05
4.369	4.11802685547	-9.34217487793	-2.52588275146	30.8794117647	0.310562021863	0.667355284217	-0.503214395785	-1.2e-05	6e-07	-2.16e-05
4.378	3.41652576904	-8.39407102051	-0.15083470459	30.8794117647	0.386637060251	-0.314692190321	0.185724349411	-1.32e-05	1.2e-06	-2.22e-05
4.388	4.72375987549	-8.91600698242	-0.660799658203	30.7852941176	0.130433384557	-0.276987749229	-0.12004134779	-1.17e-05	-9e-07	-2.13e-05
4.399	4.62559760742	-8.41561883545	0.280121594238	30.8794117647	0.0394364472206	-0.00892649312089	-0.419678407922	-1.11e-05	9e-07	-2.37e-05
4.408	5.29357987061	-8.75559547119	-0.0526724365234	30.7852941176	-0.0644839204554	-0.100589586661	-0.613263400529	-1.23e-05	9e-07	-2.25e-05
4.418	4.71418306885	-6.90248338623	-0.399831677246	30.8794117647	-0.254338438325	-0.0186523736854	-1.05052833221	-1.11e-05	-9e-07	-2.31e-05
4.428	3.7373487915	-6.14591566162	-0.955286462402	30.7852941176	-0.660826953427	0.212503828773	-1.8503154696	-1.29e-05	3e-07	-2.25e-05
4.439	3.82114584961	-5.52581743164	0.0742202514648	30.7852941176	-0.128967840911	-0.351064319008	-1.10568606582	-1.23e-05	9e-07	-2.07e-05
4.448	5.11880314941	-9.36132849121	0.45729251709	30.8794117647	-0.00999234304577	0.165739663319	-0.256070444453	-1.11e-05	3e-07	-2.25e-05
4.458	5.1858407959	-8.09240161133	0.117315881348	30.8794117647	-0.302834609907	0.478433385031	-0.70519295655	-1.14e-05	1.8e-06	-2.34e-05
4.468	4.40772525635	-7.6853873291	0.426167895508	30.7852941176	0.30563246596	0.450055130781	0.242614089151	-1.14e-05	1.2e-06	-2.22e-05
4.478	4.78840332031	-8.32703337402	-0.45968671875	30.7852941176	0.295240429192	0.551444104886	0.178663093658	-1.17e-05	3e-07	-2.25e-05
4.488	6.19140549316	-12.6533557739	2.09253225098	30.7852941176	0.213036753736	-0.0486294028227	-1.71735069147	-1.17e-05	1.5e-06	-2.25e-05
4.498	3.23696064453	-12.1864864502	0.316034619141	30.7852941176	1.64447320285	-0.369716692693	-0.948739664386	-1.11e-05	3e-07	-2.25e-05
4.508	4.63038601074	-9.7946789917	-1.38384855957	30.8794117647	1.53868759781	-0.107517611172	0.227958652684	-1.32e-05	6e-07	-2.16e-05
4.518	5.52342322998	-9.90481226807	0.318428820801	30.8794117647	1.18455896027	0.485094947062	0.596875957934	-1.11e-05	3e-07	-2.19e-05
4.528	7.89368287354	-9.11711992188	1.2856862915	30.8794117647	1.49645329453	0.406888208824	0.0544915774096	-1.02e-05	2.4e-06	-2.22e-05
4.538	5.75805499268	-10.1394440308	0.548272180176	30.8794117647	2.01991883889	-0.0266462481221	-0.192385911441	-1.05e-05	1.5e-06	-2.13e-05
4.548	6.17225187988	-9.60553706055	1.23540805664	30.9735294118	1.90094334103	0.156946401439	0.134297090535	-1.23e-05	3e-07	-2.43e-05
4.558	5.68622894287	-9.44751975098	1.58496149902	30.8794117647	1.99087442844	0.687073507827	0.669620215307	-1.23e-05	3e-07	-2.37e-05
4.568	5.37977113037	-8.54011732178	0.622492431641	30.8794117647	2.17406738428	0.599274120265	0.563568147781	-1.05e-05	3e-07	-2.19e-05
4.578	4.91050760498	-9.14345614014	0.586579406738	30.7852941176	2.20804135063	0.438330781608	0.593012251956	-1.17e-05	9e-07	-2.31e-05
4.588	4.58250197754	-9.76594857178	0.811634362793	30.7852941176	2.18246095244	0.393565084763	0.566632466315	-1.2e-05	1.2e-06	-2.4e-05
4.597	4.95360323486	-10.172962854	1.37906015625	30.8794117647	2.06055436728	0.469506891911	0.582220521467	-1.17e-05	1.5e-06	-2.49e-05
4.608	5.64073911133	-10.1226846191	1.94648594971	30.8794117647	2.18086217755	0.571562022218	0.46071363003	-1.08e-05	0.0	-2.22e-05
4.618	5.78199700928	-10.4722380615	2.34631762695	30.8794117647	2.32715007974	0.68334303309	0.419545176682	-1.08e-05	1.8e-06	-2.34e-05
4.628	5.72453616943	-10.2352120972	2.4636335083	30.8794117647	2.3893690691	0.682410414406	0.486693721949	-1.26e-05	2.4e-06	-2.34e-05
4.637	5.61919129639	-9.5001921875	3.05021291504	30.8794117647	2.49062481197	0.729973967304	0.40835375247	-1.17e-05	1.5e-06	-2.31e-05
4.647	5.33906970215	-9.2296473999	3.07894333496	30.7852941176	2.4923568181	0.763015314975	0.296306279117	-1.14e-05	1.8e-06	-2.46e-05
4.658	5.98071574707	-8.78911429443	3.41173736572	30.8794117647	2.49475498043	0.682010720684	0.322019908555	-1.32e-05	1.2e-06	-2.46e-05
4.668	4.90811340332	-8.97107362061	3.30639249268	30.8794117647	2.58042266814	0.74676110362	0.314958652803	-1.17e-05	2.1e-06	-2.43e-05
4.677	4.84107575684	-9.28471403809	3.05978972168	30.7852941176	2.72551148916	0.891316999683	0.310562021863	-1.23e-05	3e-07	-2.43e-05
4.687	4.3382934082	-9.43315454102	3.311180896	30.8794117647	2.54311792077	0.845885146635	0.433267994465	-1.2e-05	1.8e-06	-2.28e-05
4.698	4.5729251709	-8.43716665039	3.13400997314	30.7852941176	2.71498622116	0.861206739305	0.424874426306	-1.14e-05	1.2e-06	-2.4e-05
4.708	4.31195718994	-8.63588538818	3.58890828857	30.8794117647	2.50567994216	0.762082696291	0.330280245473	-1.23e-05	1.5e-06	-2.49e-05
4.717	4.09887324219	-8.84896933594	3.81396324463	30.8794117647	2.58548545528	0.799653906143	0.316424196449	-1.14e-05	1.2e-06	-2.46e-05
4.727	4.16591088867	-9.28231983643	3.9360675293	30.8794117647	2.73950076943	0.805915774451	0.310695253103	-1.29e-05	9e-07	-2.49e-05
4.738	3.90973131104	-9.13627353516	4.30956298828	30.8794117647	2.75388974341	0.809113324226	0.253805513363	-1.11e-05	3e-07	-2.49e-05
4.748	3.87142408447	-8.11873782959	4.40293685303	30.8794117647	2.77880398541	0.774473201667	0.314159265359	-1.11e-05	3e-07	-2.55e-05
4.757	3.62721551514	-7.74524237061	4.50109912109	30.8794117647	2.58934916126	0.687206739068	0.286713629793	-1.17e-05	9e-07	-2.67e-05
4.767	3.39258375244	-7.01022246094	4.49152231445	30.9735294118	2.45838285174	0.511075038981	0.334543645172	-1.17e-05	-3e-07	-2.55e-05
4.777	3.3231519043	-7.05092388916	4.90093079834	30.8794117647	2.48969219328	0.250874426069	0.148286370799	-1.08e-05	0.0	-2.52e-05
4.787	3.47398660889	-7.02698187256	5.58088406982	30.8794117647	2.51180857923	0.296439510358	0.0480964778603	-1.17e-05	1.5e-06	-2.61e-05
4.797	3.93846173096	-7.18978758545	6.10282003174	30.8794117647	2.69127106033	0.450454824503	0.0161209801138	-1.17e-05	-3e-07	-2.79e-05
4.807	4.15872828369	-7.18739338379	6.42603725586	30.9735294118	2.80891424579	0.629650843124	0.0880658500434	-1.11e-05	-9e-07	-2.61e-05
4.817	4.26167895508	-6.96233842773	6.60320817871	30.8794117647	2.9031087329	0.715185299596	-0.0119908116549	-1.17e-05	9e-07	-2.61e-05
4.827	3.84508786621	-6.45237347412	6.53617053223	30.8794117647	2.94334456756	0.764347627381	-0.100189892939	-1.08e-05	6e-07	-2.7e-05
4.837	3.15555778809	-6.09803162842	6.28956776123	30.7852941176	2.73923430695	0.66375804072	-0.0379709035739	-1.02e-05	-6e-07	-2.76e-05
4.847	2.59052619629	-5.20020600586	5.95198532715	30.8794117647	2.49502144291	0.433934150668	-0.0414349158298	-9.9e-06	3e-07	-2.73e-05
4.857	2.29364519043	-4.80755693359	6.08606062012	30.8794117647	2.52606432197	0.308430322013	-0.10045635542	-9.6e-06	0.0	-2.64e-05
4.867	2.49715233154	-4.19703551025	6.40209523926	30.9735294118	2.42547473531	0.310428790622	-0.0273124043251	-9.9e-06	3e-07	-2.85e-05
4.877	2.55221896973	-5.36301171875	6.79474431152	30.7852941176	2.5271301719	0.24887595746	-0.0977917306079	-9.6e-06	0.0	-2.7e-05
4.887	2.64319863281	-5.11640894775	6.73728347168	30.7852941176	2.63624655796	0.289111792124	-0.0435666156796	-9.9e-06	1.5e-06	-2.85e-05
4.897	2.93529123535	-5.1618987793	7.05331809082	30.8794117647	2.61266462837	0.270859112161	-0.139226646438	-1.05e-05	9e-07	-2.91e-05
4.907	3.04781871338	-4.49631071777	7.43399615479	30.9735294118	2.55550842615	0.236218989602	-0.0381041348145	-8.7e-06	-3e-07	-2.79e-05
4.917	3.87381828613	-4.40533105469	8.8992475708	30.8794117647	2.35139816553	0.451254211947	-0.843353753063	-9e-06	-6e-07	-2.7e-05
4.927	3.37821854248	-3.70622416992	9.03092866211	30.9735294118	2.16540735364	1.16444104293	-0.701462481813	-9.9e-06	9e-07	-2.91e-05
4.937	3.19625921631	-3.59848509521	8.56166513672	30.8794117647	2.23988361714	1.15378254368	-0.136162327904	-9.3e-06	-9e-07	-2.73e-05
4.946	2.67192905273	-3.45004459229	8.24084211426	30.8794117647	2.05815620495	1.00363093552	0.328015314382	-1.02e-05	1.2e-06	-2.76e-05
4.957	2.77727392578	-4.04859500732	7.88650026855	30.7852941176	1.88002603625	0.692269526211	0.551444104886	-1.02e-05	6e-07	-2.82e-05
4.967	2.36307703857	-3.311180896	7.93677850342	30.8794117647	2.30290199395	0.429004594765	0.394897397169	-9e-06	-1.2e-06	-2.82e-05
4.976	2.83952316895	-2.72938989258	8.94952580566	30.8794117647	2.15994487277	0.432868300743	0.857875958289	-9e-06	0.0	-2.82e-05
4.986	2.68150585937	-3.54820686035	8.54251152344	30.8794117647	1.79782236079	0.683875958052	1.2479770308	-8.1e-06	-9e-07	-2.85e-05
4.997	2.7461493042	-3.64876333008	9.12669672852	30.9735294118	1.93251914505	0.858542114492	1.16550689286	-9e-06	0.0	-2.76e-05
5.007	2.69587106934	-2.30801040039	9.19852277832	30.9735294118	2.07854058476	0.879059725546	1.59371210018	-9.3e-06	-3e-07	-2.85e-05
5.016	2.35589443359	-2.23857855225	9.11472572021	30.8794117647	1.98820980363	0.973254212658	2.13662940567	-9e-06	6e-07	-2.94e-05
5.026	2.44926829834	-3.16513459473	9.40921252441	30.9735294118	2.01152527073	1.0521271071	2.35526187151	-1.23e-05	-3e-07	-3.03e-05
5.037	2.27927998047	-2.59770880127	9.32780966797	30.8794117647	1.74772741433	0.89518070566	2.07321133514	-1.05e-05	3e-07	-2.85e-05
5.047	1.86987149658	-2.61925661621	9.22246479492	30.8794117647	1.7368024526	0.595676876768	1.73720214632	-1.08e-05	-6e-07	-3.06e-05
5.056	1.19470662842	-2.72460148926	8.75798967285	30.8794117647	1.71028943571	0.551044411164	1.29274272764	-9e-06	1.2e-06	-2.94e-05
5.066	1.75016141357	-2.14999309082	8.66461580811	30.8794117647	1.91066922159	0.763681471178	0.574759571993	-9.6e-06	0.0	-3.12e-05
5.076	1.18512982178	-1.25456166992	8.65503900146	30.8794117647	2.0737442601	0.652300154028	0.340405819759	-9.6e-06	6e-07	-2.88e-05
5.087	1.13245738525	-0.746990917969	9.27753143311	30.8794117647	2.22562787439	0.65936140978	0.272457887048	-9.9e-06	-9e-07	-2.97e-05
5.096	0.806845959473	-0.332794030762	10.4889974731	30.7852941176	1.79782236079	0.0783399694788	0.645771823238	-1.14e-05	-6e-07	-3e-05
5.106	1.75255561523	-0.512359155273	10.2184526855	30.8794117647	1.4372986237	-0.188788667945	0.819905054716	-1.02e-05	-1.8e-06	-3e-05
5.116	2.05183082275	-0.974440075684	9.90720646973	30.8794117647	1.2181332329	-0.280718223966	1.03787136435	-1.02e-05	-1.2e-06	-3.06e-05
5.127	2.24336695557	-1.27850368652	9.44991395264	30.9735294118	1.06025421278	-0.235019908436	1.17829709196	-1.02e-05	-6e-07	-2.88e-05
5.136	0.260967980957	-1.69748897705	9.92157167969	30.8794117647	0.965526800703	-0.467908117023	1.09795865387	-9.6e-06	6e-07	-3.12e-05
5.146	-6.64151540527	-2.12605107422	14.0395985352	30.8794117647	0.693335376136	-1.21213782707	0.444859112398	-9.6e-06	-1.2e-06	-3e-05
5.156	2.91853182373	-1.24737906494	8.45871446533	30.7852941176	0.538520674547	-1.06025421278	-0.850281777575	-9.9e-06	-9e-07	-3.15e-05
5.166	2.5234885498	-0.509964953613	9.10993731689	30.9735294118	0.563967841503	-0.747960184786	-0.745961716177	-9.3e-06	-9e-07	-2.97e-05
5.176	2.26491477051	-0.265756384277	9.42357773437	30.8794117647	0.620457887522	-0.581154671542	-0.128434915948	-8.7e-06	-3e-07	-2.97e-05
5.186	2.18830031738	-0.31364041748	9.38287630615	30.8794117647	0.433800919427	-0.602738132521	0.114312404444	-9e-06	-1.2e-06	-3e-05
5.196	2.31998140869	-0.60573302002	8.99740983887	30.8794117647	0.250341501107	-0.621257274966	0.0178529862418	-9e-06	0.0	-3e-05
5.206	2.4875755249	-0.328005627441	8.54729992676	30.9735294118	0.21836600336	-0.525330781726	-0.00359724349648	-8.4e-06	-6e-07	-2.76e-05
5.216	2.68390006104	-0.545877978516	8.07085379639	30.8794117647	0.268327718589	-0.3710490051	0.158678407567	-8.7e-06	3e-07	-2.91e-05
5.226	2.7341782959	-0.550666381836	8.17380446777	30.8794117647	0.362788668182	-0.208506891555	0.255271057009	-9e-06	6e-07	-3.06e-05
5.236	2.72938989258	-0.600944616699	8.46110866699	30.8794117647	0.40382389029	-0.108583461097	0.313093415434	-9e-06	-6e-07	-2.88e-05
5.245	2.98796367187	-0.857124194336	8.65503900146	30.8794117647	0.4497886683	-0.0298437978967	0.309362940697	-9e-06	-1.8e-06	-3e-05
5.256	2.96402165527	-1.09654436035	8.81066210937	30.8794117647	0.536122512216	0.03930321598	0.206508422946	-9.9e-06	9e-07	-2.85e-05
5.266	2.90416661377	-0.871489404297	9.14824454346	30.8794117647	0.491623277852	0.0992572742546	0.077940275757	-8.7e-06	-1.5e-06	-2.91e-05
5.276	2.78445653076	-0.782903942871	9.36372269287	30.8794117647	0.403690659049	0.0988575805328	-0.0433001531983	-9e-06	0.0	-2.82e-05
5.285	2.71502468262	-0.703895288086	9.64384428711	30.8794117647	0.348799387918	0.109516079782	-0.104320061398	-8.7e-06	-1.5e-06	-2.97e-05
5.296	2.52109434814	-0.550666381836	9.69412252197	30.7852941176	0.267528331145	0.0992572742546	-0.14189127125	-8.4e-06	-6e-07	-3e-05
5.306	2.25054956055	-0.325611425781	9.78510218506	30.9735294118	0.227558958962	0.0963261869612	-0.207973966593	-9e-06	0.0	-2.94e-05
5.316	2.21463653564	-0.16041151123	9.87368764648	30.8794117647	0.141491577528	0.092995405946	-0.100589586661	-8.4e-06	0.0	-3e-05
5.325	2.25294376221	-0.177170922852	9.75397756348	30.8794117647	0.0167871363169	0.11124808591	0.0222496171819	-9e-06	-1.8e-06	-3.06e-05
5.336	2.27927998047	-0.430956298828	9.83777462158	30.9735294118	-0.0540918836878	0.0997901992171	0.0908637060962	-9e-06	-1.2e-06	-2.88e-05
5.346	2.59292039795	-0.775721337891	9.54328781738	30.8794117647	0.059820827034	0.156413476476	0.154281776627	-7.8e-06	1.8e-06	-2.88e-05
5.355	2.60249720459	-0.696712683105	9.56244143066	30.8794117647	0.221163859413	0.245811638926	0.273790199454	-9e-06	-6e-07	-3.06e-05
5.365	2.51391174316	-0.684741674805	9.5720182373	30.8794117647	0.292042879418	0.308963246975	0.372514548746	-8.7e-06	-1.5e-06	-2.91e-05
5.376	2.38701905518	-0.612915625	9.97663831787	30.9735294118	0.250741194828	0.316290965209	0.328947933067	-9.6e-06	6e-07	-2.82e-05
5.386	2.35350023193	-0.612915625	10.046070166	30.8794117647	0.163341500988	0.304033691073	0.252206738475	-9.3e-06	-3e-07	-3.09e-05
5.395	2.44687409668	-0.665588061523	10.1059252075	30.9735294118	0.112980092037	0.302967841148	0.177464012493	-8.4e-06	0.0	-3e-05
5.405	2.25054956055	-0.541089575195	10.0700121826	30.9735294118	0.100056661698	0.312427259231	0.096725880683	-8.4e-06	-1.2e-06	-2.94e-05
5.415	2.10450325928	-0.567425793457	9.92636008301	30.8794117647	0.104453292638	0.287513017237	0.0650168454178	-9e-06	-6e-07	-3e-05
5.426	1.84592947998	0.0526724365234	9.27753143311	30.8794117647	-0.0872664625997	0.342937213331	0.27498928062	-8.4e-06	0.0	-2.88e-05
5.435	2.0733786377	-0.373495458984	9.59356605225	30.8794117647	-0.0933950996678	0.405022971455	0.532258806238	-8.1e-06	-3e-07	-2.91e-05
5.445	1.36469494629	-1.21625444336	10.9510783936	30.8794117647	0.0847350690281	0.367584992844	0.394897397169	-8.1e-06	-9e-07	-2.97e-05
5.455	1.91536132812	-0.672770666504	10.0053687378	30.8794117647	0.0726110261326	0.333078101526	0.0588882083497	-7.8e-06	-6e-07	-2.88e-05
5.466	1.8507178833	-0.0526724365234	9.5720182373	30.8794117647	-0.0634180705305	0.352130168933	0.235952527121	-9e-06	-6e-07	-2.94e-05
5.475	1.49398183594	-0.366312854004	9.1458503418	30.8794117647	0.000266462481221	0.435532925555	0.695333844745	-8.7e-06	-1.5e-06	-2.91e-05
5.485	1.29286889648	-0.430956298828	9.53371101074	30.8794117647	0.144289433581	0.443393568751	0.87985911299	-9.6e-06	6e-07	-2.94e-05
5.495	1.1540052002	-0.802057556152	10.6422263794	30.9735294118	0.171868300387	0.303900459832	0.684675345496	-9.3e-06	-3e-07	-3.09e-05
5.506	1.27610948486	-1.20428343506	11.2838724243	30.8794117647	0.0863338439154	0.0840689128251	0.103787136435	-9.9e-06	-2.1e-06	-2.97e-05
5.515	1.61129771729	-1.17555301514	11.1354319214	30.9735294118	-0.0346401225587	-0.0606202144777	-0.358791730963	-9.6e-06	-1.2e-06	-3e-05
5.525	1.63763393555	-0.883460412598	10.7547538574	30.8794117647	-0.124571209971	-0.134430321776	-0.595676876768	-8.7e-06	-3e-07	-2.97e-05
5.535	1.50116444092	-0.483628735352	10.3118265503	30.8794117647	-0.243413476595	-0.157479326401	-0.612330781845	-9.6e-06	-2.4e-06	-2.94e-05
5.544	1.36469494629	-0.509964953613	9.94551369629	30.8794117647	-0.269260337273	-0.0993905054952	-0.496952527476	-9e-06	-6e-07	-3.12e-05
5.555	1.61129771729	-0.366312854004	9.7348239502	30.8794117647	-0.119908116549	0.00706125575234	-0.288845329643	-8.4e-06	0.0	-3.06e-05
5.565	1.48679923096	-0.495599743652	9.8545340332	30.9735294118	-0.00692802451173	0.108450229857	-0.0877993875622	-8.7e-06	-2.1e-06	-3.15e-05
5.575	1.59453830566	-0.46686932373	9.63905588379	30.9735294118	0.124970903692	0.236485452083	0.109382848541	-9.3e-06	3e-07	-2.97e-05
5.584	1.5442600708	-0.486022937012	9.34935748291	30.8794117647	0.268860643551	0.275655436823	0.30789739705	-9e-06	-1.2e-06	-2.94e-05
5.595	1.43173259277	-0.361524450684	9.47385596924	30.8794117647	0.218632465841	0.228891271368	0.438330781608	-8.7e-06	-1.5e-06	-2.97e-05
5.605	1.55383687744	-0.897825622559	9.96706151123	30.9735294118	0.118442572903	0.103920367676	0.341738132165	-9e-06	6e-07	-2.94e-05
5.615	2.20984813232	-0.950498059082	8.84418093262	30.8794117647	0.0992572742546	0.156679938958	0.0818039817347	-9.9e-06	-2.1e-06	-3.03e-05
5.624	1.25695587158	-0.842758984375	9.69172832031	30.8794117647	0.516937213568	0.52839510026	0.575825421918	-9.3e-06	-3e-07	-2.97e-05
5.635	1.49877023926	-0.555454785156	10.0819831909	30.8794117647	0.447124043488	0.43233537578	0.477101072625	-8.4e-06	-1.8e-06	-3e-05
5.645	0.950498059082	-0.713472094727	10.5967365479	30.9735294118	0.271258805882	0.219431853285	0.143889739859	-9.9e-06	3e-07	-3.03e-05
5.655	1.22343704834	-0.368707055664	10.4746322632	30.8794117647	0.12670290982	0.127635528505	-0.0921960185023	-9.9e-06	-9e-07	-3.15e-05
5.664	1.45328040771	-0.591367810059	9.99818613281	30.8794117647	0.0407687596267	0.0965926494424	-0.0118575804143	-9.6e-06	-1.2e-06	-2.94e-05
5.675	1.05344873047	-0.531512768555	9.97663831787	30.9735294118	0.0896646249307	0.108716692338	-0.02837825425	-8.4e-06	-1.8e-06	-3.18e-05
5.685	1.22583125	-0.667982263184	9.70609353027	30.9735294118	0.207574272871	0.165339969597	-0.0446324656044	-9e-06	-6e-07	-2.94e-05
5.695	1.18273562012	-0.359130249023	9.73721815186	30.8794117647	0.267528331145	0.166672282003	-0.00319754977465	-8.4e-06	0.0	-3e-05
5.704	1.4604630127	-0.418985290527	9.8425630249	30.8794117647	0.236618683324	0.190920367794	0.129900459595	-1.02e-05	-6e-07	-2.88e-05
5.714	1.40300217285	-0.486022937012	9.95987890625	30.8794117647	0.298970903929	0.225427259113	0.304566616035	-9e-06	-6e-07	-3.06e-05
5.725	1.30483990479	-0.402225878906	9.68693991699	30.8794117647	0.354928024986	0.245278713963	0.413816233335	-9e-06	-1.2e-06	-3.18e-05
5.734	1.30244570312	-0.409408483887	9.8305920166	30.8794117647	0.331479326638	0.235286370918	0.411018377283	-1.02e-05	-6e-07	-3.12e-05
5.744	1.33835872803	-0.423773693848	9.79228479004	30.8794117647	0.338007657428	0.207041347908	0.368650842769	-9.3e-06	-3e-07	-3.03e-05
5.754	1.24737906494	-0.268150585937	9.94311949463	30.8794117647	0.293641654305	0.185990811892	0.354528331264	-7.8e-06	-6e-07	-3.12e-05
5.765	1.13485158691	-0.232237561035	9.98142672119	30.8794117647	0.230090352534	0.143623277378	0.316957121412	-1.05e-05	-9e-07	-3.15e-05
5.774	1.03908352051	-0.114921679688	10.0484643677	30.9735294118	0.120707503993	0.0903307811338	0.239683001858	-9.6e-06	-1.2e-06	-3.06e-05
5.784	1.10372696533	-0.138863696289	9.76355437012	30.8794117647	0.0494287902664	0.0518269525974	0.201712098284	-1.05e-05	-9e-07	-3.03e-05
5.794	1.23540805664	-0.277727392578	9.43315454102	30.8794117647	0.0854012252312	0.0864670751561	0.275655436823	-8.7e-06	-1.5e-06	-2.97e-05
5.805	1.13245738525	-0.263362182617	9.4642791626	30.9735294118	0.139892802641	0.136695252866	0.280451761485	-9e-06	-1.8e-06	-3.06e-05
5.814	1.11090957031	-0.239420166016	9.63187327881	30.9735294118	0.210905053886	0.160676876176	0.196649311141	-9.6e-06	-1.8e-06	-3.06e-05
5.824	1.10372696533	-0.263362182617	9.79228479004	30.7852941176	0.224361409188	0.158012251364	0.148019908318	-9.6e-06	-1.8e-06	-3.06e-05
5.834	0.849941589355	-0.945709655762	10.1298672241	30.8794117647	0.206908116668	0.0920627872617	0.0948606433145	-1.02e-05	-6e-07	-3.06e-05
5.844	1.02232410889	-0.268150585937	10.172962854	30.8794117647	0.147886677077	0.0222496171819	-0.0193185298885	-1.08e-05	-6e-07	-3.06e-05
5.854	1.20667763672	-0.177170922852	10.180145459	30.9735294118	0.0247810107535	0.00972588056455	0.0434333844389	-9e-06	-6e-07	-2.94e-05
5.864	1.01035310059	-0.30406361084	10.4698438599	30.8794117647	-0.107650842413	-0.0315758040246	0.0840689128251	-1.02e-05	-6e-07	-2.94e-05
5.874	1.04147772217	-0.349553442383	10.5943423462	30.8794117647	-0.210372128924	-0.103920367676	-0.00439663094014	-1.05e-05	-2.1e-06	-3.03e-05
5.884	1.08457335205	-0.30885201416	10.3261917603	30.8794117647	-0.290044410809	-0.15494793283	-0.0632848392899	-1.02e-05	-1.2e-06	-2.94e-05
5.894	1.12048637695	-0.29927520752	10.1394440308	30.8794117647	-0.300569678817	-0.182127105914	-0.0770076570727	-9e-06	-1.8e-06	-3.12e-05
5.904	1.05344873047	-0.30406361084	10.0173397461	30.9735294118	-0.277653905432	-0.222895865541	-0.138427258994	-9.6e-06	-1.8e-06	-3.06e-05
5.914	1.2018892334	-0.421379492187	9.75397756348	30.8794117647	-0.217966309638	-0.24674425761	-0.205975497983	-8.4e-06	-1.2e-06	-3.06e-05
5.923	1.20428343506	-0.442927307129	9.7946789917	30.8794117647	-0.0863338439154	-0.251940275994	-0.249408882422	-1.08e-05	0.0	-3.06e-05
5.934	1.29526309814	-0.359130249023	9.70848773193	30.8794117647	0.0479632466197	-0.268327718589	-0.253672282122	-9.6e-06	-1.8e-06	-3e-05
5.944	1.40300217285	-0.318428820801	10.0436759644	30.8794117647	0.126169984858	-0.0925957122241	-0.187589586779	-1.02e-05	-1.2e-06	-3.06e-05
5.954	1.44609780273	-0.169988317871	9.98142672119	30.8794117647	0.106718223729	0.0323751914683	-0.00346401225587	-9.9e-06	-9e-07	-3.03e-05
5.963	1.592144104	-0.122104284668	9.84016882324	30.8794117647	0.0149218989483	0.118176110421	0.195983154938	-1.2e-05	-6e-07	-3.12e-05
5.974	1.31920511475	-0.426167895508	10.2950671387	30.8794117647	-0.0835359878626	0.117643185459	0.174532925199	-9.6e-06	0.0	-3.06e-05
5.984	1.14682259521	-0.351947644043	10.4650554565	30.8794117647	-0.208107197833	0.029044410453	0.0502281777101	-9.3e-06	-2.1e-06	-2.97e-05
5.994	1.06541973877	-0.275333190918	10.6230727661	30.8794117647	-0.300436447576	-0.0614196019213	-0.0736768760575	-9e-06	-6e-07	-3e-05
6.003	1.23301385498	-0.351947644043	10.1011368042	30.8794117647	-0.203977029374	-0.0855344564718	-0.0273124043251	-9e-06	-1.2e-06	-3.06e-05
6.013	1.30723410645	-0.244208569336	9.74440075684	30.8794117647	-0.0463644717324	0.00892649312089	0.148286370799	-8.7e-06	-9e-07	-3.03e-05
6.024	1.41018477783	-0.397437475586	9.65102689209	30.8794117647	0.0684808576737	0.0780735069976	0.203310873171	-1.02e-05	-6e-07	-3.12e-05
6.034	1.43412679443	-0.543483776855	9.88805285645	30.9735294118	0.175465543884	0.175865237606	0.122705972602	-8.7e-06	-3e-07	-3.09e-05
6.043	1.51074124756	-0.785298144531	10.0652237793	30.8794117647	0.256869831897	0.180928024749	0.093661562149	-1.02e-05	-6e-07	-3.06e-05
6.053	1.472434021	-0.60573302002	10.1992990723	30.9735294118	0.299637060132	0.10485298636	0.0540918836878	-9.3e-06	-9e-07	-3.15e-05
6.064	1.37187755127	-0.375889660645	9.96227310791	30.9735294118	0.270459418439	0.0935283309084	0.0554241960939	-9e-06	-6e-07	-3.06e-05
6.074	1.25216746826	-0.373495458984	9.91917747803	30.9735294118	0.258468606784	0.114179173203	0.118975497865	-1.02e-05	-1.8e-06	-3e-05
6.083	1.19949503174	-0.385466467285	9.53131680908	30.8794117647	0.339473201075	0.29257580438	0.509609495334	-9.3e-06	-9e-07	-3.03e-05
6.093	0.869095202637	-0.320823022461	10.2495773071	30.9735294118	0.405822358899	0.226493109037	0.57862327797	-9e-06	-1.8e-06	-3.06e-05
6.104	0.792480749512	-0.270544787598	10.5033626831	30.8794117647	0.423675345141	0.175865237606	0.429670750968	-9.3e-06	-1.5e-06	-2.85e-05
6.113	0.816422766113	-0.100556469727	10.5584293213	30.8794117647	0.387169985213	0.0762082696291	0.270192955958	-8.1e-06	-9e-07	-3.09e-05
6.123	0.806845959473	0.0598550415039	10.3477395752	30.9735294118	0.343603369534	-0.00426339969953	0.208640122796	-9.6e-06	-6e-07	-3.18e-05
6.133	0.885854614258	0.0790086547852	10.0795889893	30.9735294118	0.239016845655	-0.00506278714319	0.185724349411	-9.6e-06	0.0	-3.06e-05
6.144	1.15879360352	0.162805712891	9.74200655518	30.9735294118	0.190254211591	0.062218989365	0.26206585028	-1.02e-05	-6e-07	-3.24e-05
6.153	1.11330377197	0.232237561035	9.26316622314	30.9735294118	0.212770291255	0.185058193208	0.435000000592	-9.6e-06	0.0	-3.24e-05
6.163	1.15639940186	0.0790086547852	9.29429084473	30.8794117647	0.334676876413	0.274856049379	0.648836141772	-8.4e-06	0.0	-3.06e-05
6.173	0.897825622559	0.201112939453	9.76116016846	30.9735294118	0.461779479955	0.256869831897	0.722113324108	-8.7e-06	-2.1e-06	-3.03e-05
6.183	0.794874951172	0.201112939453	10.1633860474	30.9735294118	0.443793262473	0.158545176326	0.608733538348	-1.08e-05	0.0	-3.06e-05
6.193	0.778115539551	0.107739074707	10.3309801636	30.9735294118	0.373047473709	0.0575558959436	0.424341501344	-9.9e-06	-2.7e-06	-3.15e-05
6.203	0.821211169434	0.110133276367	10.3740757935	30.8794117647	0.255937213212	0.0051960183838	0.248476263738	-1.14e-05	0.0	-3.18e-05
6.213	0.91458503418	-0.0646434448242	10.2759135254	30.9735294118	0.162275651063	-0.00506278714319	0.113513017	-9.6e-06	-1.2e-06	-3.24e-05
6.223	0.962469067383	-0.0981622680664	10.2974613403	30.9735294118	0.128168453467	0.0106584992488	0.0207840735352	-9.6e-06	-2.4e-06	-3.06e-05
6.233	0.893037219238	0.00718260498047	10.3788641968	30.9735294118	0.0751424197042	-0.02837825425	-0.0370382848897	-8.4e-06	-6e-07	-3.06e-05
6.243	0.852335791016	0.0598550415039	10.3190091553	30.9735294118	-0.0170535987981	-0.134297090535	-0.129234303392	-9.6e-06	-1.2e-06	-3.18e-05
6.253	0.861912597656	0.0119710083008	10.067617981	30.8794117647	-0.116444104293	-0.238750383174	-0.314958652803	-9.9e-06	-3e-07	-3.03e-05
6.263	1.02232410889	0.0335188232422	9.56244143066	30.9735294118	-0.145621745987	-0.204110260615	-0.210905053886	-9e-06	-1.2e-06	-3.18e-05
6.273	1.04626612549	-0.045489831543	9.55047042236	30.9735294118	-0.117643185459	-0.134963246738	-0.100189892939	-9.9e-06	-1.5e-06	-3.03e-05
6.283	1.23061965332	0.0191536132812	9.80186159668	30.9735294118	-0.0751424197042	-0.0770076570727	0.0337075038744	-1.14e-05	0.0	-3e-05
6.293	1.1899182251	0.102950671387	10.0029745361	30.9735294118	-0.0250474732347	-0.0502281777101	0.244079632798	-1.05e-05	-1.5e-06	-3.15e-05
6.302	0.979228479004	0.191536132812	10.2974613403	30.9735294118	-0.0358392037242	-0.0460980092511	0.364120980588	-9.3e-06	-1.5e-06	-3.15e-05
6.312	0.814028564453	0.277727392578	10.3309801636	30.9735294118	-0.0916630935399	-0.0346401225587	0.346134763105	-1.02e-05	-1.2e-06	-3.12e-05
6.323	0.749385119629	0.323217224121	10.3190091553	30.8794117647	-0.217966309638	-0.0275788668063	0.286713629793	-9.9e-06	-3e-07	-3.09e-05
6.333	0.75896192627	0.102950671387	10.3333743652	30.9735294118	-0.399027565628	-0.0590214395903	0.218765697082	-9.9e-06	-1.5e-06	-3.09e-05
6.342	0.732625708008	0.0861912597656	10.292672937	30.8794117647	-0.594477795603	-0.131898928204	0.0516937213568	-1.05e-05	-3e-07	-3.09e-05
6.352	0.984016882324	-0.114921679688	10.0867715942	30.8794117647	-0.729041348619	-0.17906278738	-0.122439510121	-9.9e-06	-9e-07	-3.03e-05
6.363	1.16118780518	-0.129286889648	9.8784760498	30.9735294118	-0.680411945797	-0.137894334032	-0.133897396813	-9.6e-06	-1.8e-06	-3.06e-05
6.373	1.07260234375	-0.105344873047	9.88565865479	30.9735294118	-0.471905054242	-0.12443797873	-0.0672817765082	-8.7e-06	-2.1e-06	-3.09e-05
6.382	1.04387192383	-0.0502782348633	10.053252771	31.0676470588	-0.391033691191	-0.0459647780105	0.0230490046256	-7.8e-06	-2.4e-06	-3.12e-05
6.392	1.41257897949	-0.251391174316	9.62947907715	30.9735294118	-0.165206738357	-0.291243491974	0.239683001858	-1.05e-05	-1.5e-06	-3.21e-05
6.403	1.28808049316	-0.46208092041	9.41160672607	30.9735294118	0.0722113324108	-0.0237151608286	0.308563553253	-9.3e-06	-1.5e-06	-3.09e-05
6.413	1.08936175537	-0.280121594238	10.0125513428	31.0676470588	0.263797856408	0.0258468606784	0.340405819759	-8.4e-06	-3.6e-06	-2.88e-05
6.422	0.928950244141	-0.280121594238	10.2663367187	30.9735294118	0.250874426069	-0.0253139357159	0.259667687949	-1.08e-05	6e-07	-3.18e-05
6.432	2.03028300781	0.045489831543	11.6789156982	30.9735294118	-0.0738101072981	0.190120980351	0.203577335652	-9.9e-06	-9e-07	-3.21e-05
6.443	0.905008227539	-0.385466467285	9.88087025146	30.9735294118	-0.00506278714319	-0.0257136294378	0.0664823890645	-9.3e-06	-9e-07	-3.09e-05
6.453	1.02471831055	-0.342370837402	9.7827079834	30.8794117647	-0.0985911180516	-0.0374379786115	-0.134030628054	-1.14e-05	-1.2e-06	-3e-05
6.462	1.33835872803	-0.550666381836	9.89523546143	30.9735294118	0.0173200612793	0.0383705972958	-0.116843798015	-1.05e-05	-1.5e-06	-3.09e-05
6.472	1.19949503174	-0.45489831543	9.78510218506	30.9735294118	0.245545176445	0.030776416581	0.0143889739859	-1.11e-05	-3e-07	-3.15e-05
6.482	1.13724578857	-0.177170922852	9.84495722656	30.9735294118	0.387303216454	0.0149218989483	0.0285114854906	-9.6e-06	-1.8e-06	-3.12e-05
6.492	1.16837041016	-0.141257897949	9.80186159668	30.9735294118	0.396496172056	0.0191852986479	0.0293108729343	-1.05e-05	-9e-07	-3.03e-05
6.502	1.17555301514	-0.169988317871	10.0628295776	30.9735294118	0.381840735589	-0.0186523736854	0.0201179173321	-9.9e-06	-9e-07	-3.03e-05
6.512	1.07739074707	-0.248996972656	10.0724063843	30.9735294118	0.407687596267	-0.102188361548	0.0502281777101	-1.02e-05	-6e-07	-3.12e-05
6.522	1.15161099854	-0.237025964355	9.93593688965	30.9735294118	0.50428024571	-0.20091271084	0.0627519143274	-9.9e-06	-9e-07	-3.09e-05
6.532	1.07020814209	-0.0622492431641	10.1921164673	30.9735294118	0.484162328378	-0.278320061635	-0.0247810107535	-1.08e-05	-1.8e-06	-3.06e-05
6.542	1.33357032471	0.162805712891	10.2447889038	30.9735294118	0.383173047995	-0.321886677314	-0.170402756741	-1.05e-05	9e-07	-3.09e-05
6.552	1.45088620605	0.251391174316	9.99339772949	30.9735294118	0.328281776864	-0.259267994228	-0.124304747489	-1.05e-05	-3e-07	-3.09e-05
6.562	1.47003981934	0.471657727051	10.4435076416	30.8794117647	0.119108729106	-0.0855344564718	-0.123638591286	-9e-06	-6e-07	-3.12e-05
6.572	1.25216746826	0.0981622680664	9.93833109131	30.9735294118	0.0660826953427	-0.0872664625997	-0.134297090535	-1.05e-05	-3e-07	-3.03e-05
6.582	1.28808049316	0.191536132812	10.2280294922	30.9735294118	-0.00333078101526	-0.0811378255316	-0.197049004863	-9.6e-06	0.0	-3.12e-05
6.592	1.26413847656	0.0191536132812	10.3573163818	30.9735294118	-0.141491577528	-0.0606202144777	-0.25980091919	-9.3e-06	-9e-07	-3.03e-05
6.602	1.14203419189	-0.112527478027	10.0843773926	30.8794117647	-0.177197550012	-0.106318530007	-0.257802450581	-1.08e-05	-6e-07	-3e-05
6.611	1.2018892334	-0.031124621582	10.0125513428	30.9735294118	-0.115245023128	-0.103520673954	-0.282183767613	-1.02e-05	-1.8e-06	-3.06e-05
6.622	1.23301385498	0.0	9.91199487305	31.0676470588	0.0443660031232	-0.0640842267335	-0.191186830276	-9.9e-06	-9e-07	-3.09e-05
6.632	1.18273562012	-0.00239420166016	10.0221281494	30.9735294118	0.204643185577	-0.0498284839882	-0.0941944871114	-9.9e-06	-9e-07	-3.15e-05
6.642	1.13006318359	-0.0430956298828	10.1178962158	30.9735294118	0.236218989602	-0.0638177642523	-0.138160796513	-8.7e-06	-2.1e-06	-3.21e-05
6.651	1.04866032715	0.0191536132812	10.1897222656	30.8794117647	0.232355283624	-0.120307810271	-0.231955589902	-9e-06	-6e-07	-3.06e-05
6.662	1.22822545166	0.220266552734	10.0484643677	30.9735294118	0.189721286629	-0.110581929707	-0.276055130544	-9.9e-06	3e-07	-3.03e-05
6.672	1.36708914795	0.323217224121	9.81622680664	30.9735294118	0.139892802641	-0.0257136294378	-0.268194487348	-9.9e-06	-3e-07	-3.15e-05
6.681	1.2497732666	0.339976635742	9.81383260498	30.9735294118	0.0804716693286	0.0246477795129	-0.264330781371	-8.4e-06	-6e-07	-3.18e-05
6.691	1.12527478027	0.294486804199	9.74918916016	30.9735294118	0.00306431853404	0.0492955590258	-0.28591424235	-1.11e-05	-3e-07	-2.97e-05
6.702	1.27132108154	0.189141931152	9.92157167969	30.9735294118	-0.0103920367676	0.0266462481221	-0.206908116668	-9.3e-06	-3e-07	-3.03e-05
6.712	1.2378022583	0.179565124512	10.0556469727	30.9735294118	0.0194517611291	-0.0285114854906	-0.114712098165	-9.3e-06	-9e-07	-3.03e-05
6.721	1.15639940186	0.105344873047	10.0029745361	30.8794117647	0.0442327718826	-0.0459647780105	-0.104186830157	-8.7e-06	-9e-07	-3.15e-05
6.731	1.07020814209	0.105344873047	10.0891657959	30.9735294118	0.0800719756068	-0.0710122512453	-0.15494793283	-9e-06	-1.2e-06	-3.12e-05
6.742	1.08696755371	0.131681091309	10.060435376	31.0676470588	0.153215926702	-0.082736600419	-0.181860643433	-9e-06	-6e-07	-2.88e-05
6.752	1.19470662842	0.076614453125	10.0867715942	30.9735294118	0.194517611291	-0.0996569679765	-0.240882083023	-9.6e-06	-6e-07	-3.06e-05
6.761	1.2138602417	0.232237561035	10.0077629395	30.9735294118	0.202378254487	-0.108583461097	-0.296306279117	-9e-06	0.0	-3.06e-05
6.771	1.34554133301	0.354341845703	9.91199487305	30.9735294118	0.184125574523	-0.0854012252312	-0.30789739705	-8.7e-06	9e-07	-2.97e-05
6.781	1.32399351807	0.45968671875	9.89284125977	31.0676470588	0.131232772001	-0.0695467075986	-0.278453292875	-8.7e-06	-2.1e-06	-3.09e-05
6.792	1.39103116455	0.445321508789	10.0173397461	30.9735294118	0.0503614089507	-0.0647503829366	-0.247676876294	-9.3e-06	-3e-07	-2.91e-05
6.801	1.42933839111	0.363918652344	9.82580361328	30.8794117647	0.0263797856408	-0.051960183838	-0.132032159445	-9.9e-06	3e-07	-3.09e-05
6.811	1.32159931641	0.474051928711	10.038887561	30.9735294118	-0.0138560490235	-0.0624854518462	-0.0483629403415	-9.3e-06	-9e-07	-3.03e-05
6.821	1.34793553467	0.512359155273	10.0340991577	30.9735294118	-0.0807381318098	-0.06768147023	-0.0165206738357	-1.05e-05	-1.5e-06	-3.03e-05
6.832	1.32878192139	0.373495458984	9.95269630127	30.8794117647	-0.0668820827863	-0.0322419602277	0.0740765697793	-8.7e-06	-9e-07	-2.97e-05
6.841	1.26892687988	0.289698400879	9.81383260498	30.9735294118	0.010258805527	-0.00679479327112	0.145222052265	-9.6e-06	-1.8e-06	-2.94e-05
6.851	1.19710083008	0.361524450684	9.86171663818	31.0676470588	0.0945941808333	0.00119908116549	0.119241960346	-7.8e-06	-1.2e-06	-3.06e-05
6.861	1.21146604004	0.399831677246	9.82101520996	30.9735294118	0.108050536135	0.0210505360164	0.0655497703802	-8.1e-06	-1.5e-06	-2.97e-05
6.871	1.26653267822	0.486022937012	10.0269165527	30.8794117647	0.0730107198544	0.0110581929707	0.0916630935399	-9e-06	-1.2e-06	-3.06e-05
6.881	1.33596452637	0.533906970215	10.0724063843	30.9735294118	-0.0350398162805	0.00333078101526	0.0852679939906	-9.9e-06	-3e-07	-3.03e-05
6.891	1.38863696289	0.469263525391	10.0628295776	30.9735294118	-0.155614089033	0.00892649312089	0.0814042880129	-9.9e-06	-9e-07	-3.03e-05
6.901	1.39342536621	0.481234533691	10.053252771	30.8794117647	-0.270592649679	0.00546248086502	0.0885987750058	-7.8e-06	0.0	-3.12e-05
6.91	1.43652099609	0.442927307129	9.77791958008	30.9735294118	-0.324418070886	0.0406355283861	0.149618683205	-8.7e-06	3e-07	-3.03e-05
6.921	1.42454998779	0.208295544434	9.84016882324	31.0676470588	-0.296306279117	0.0502281777101	0.243280245354	-9e-06	-1.2e-06	-3.18e-05
6.931	1.37906015625	0.203507141113	9.7707369751	30.9735294118	-0.214102603661	0.0558238898157	0.331079632916	-1.02e-05	1.2e-06	-3e-05
6.941	1.26653267822	0.181959326172	9.80425579834	30.9735294118	-0.111514548391	0.0683476264331	0.369983155175	-1.02e-05	-6e-07	-3.12e-05
6.95	1.24259066162	0.15322890625	9.92157167969	30.9735294118	-0.0326416539495	0.0571562022218	0.333078101526	-1.02e-05	-1.8e-06	-3e-05
6.961	1.18034141846	0.14604630127	9.94311949463	30.9735294118	0.0159877488732	0.0237151608286	0.27285758077	-8.4e-06	-1.2e-06	-3e-05
6.971	1.32159931641	0.124498486328	9.95030209961	30.9735294118	-0.0302434916185	-0.0335742726338	0.208506891555	-8.4e-06	-6e-07	-3.06e-05
6.981	1.30483990479	0.186747729492	10.0748005859	30.9735294118	-0.10911638606	-0.0843353753063	0.179995406064	-9.3e-06	-1.5e-06	-3.21e-05
6.99	1.30962830811	0.191536132812	10.060435376	30.9735294118	-0.217566615917	-0.127502297264	0.169869831778	-8.1e-06	3e-07	-2.97e-05
7.001	1.37906015625	0.251391174316	10.1059252075	30.9735294118	-0.286980092274	-0.103920367676	0.241148545505	-9e-06	-6e-07	-3.12e-05
7.011	1.29047469482	0.177170922852	10.0317049561	30.8794117647	-0.334277182691	-0.0603537519964	0.29031087329	-1.05e-05	9e-07	-2.97e-05
7.021	1.30962830811	0.0933738647461	9.92636008301	30.8794117647	-0.343736600774	-0.0467641654542	0.304433384794	-8.7e-06	-3e-07	-2.97e-05
7.03	1.39342536621	0.0359130249023	9.89523546143	31.0676470588	-0.317623277615	-0.021183767257	0.316690658931	-9.9e-06	-3e-07	-3.09e-05
7.041	1.34554133301	0.0837970581055	9.81383260498	30.8794117647	-0.235153139677	0.0341071975962	0.421676876531	-9.6e-06	-6e-07	-3e-05
7.051	1.31202250977	-0.110133276367	9.85692823486	31.0676470588	-0.169603369297	0.0462312404918	0.486160796987	-9.6e-06	0.0	-2.94e-05
7.06	1.37906015625	-0.14604630127	9.8186210083	30.9735294118	-0.0556906585751	0.0889984687276	0.555840735826	-9.6e-06	-1.8e-06	-3e-05
7.07	1.44130939941	-0.0263362182617	9.7827079834	30.9735294118	0.0920627872617	0.193318530125	0.810978561595	-1.08e-05	-6e-07	-3.06e-05
7.08	1.37666595459	0.0383072265625	9.90960067139	30.9735294118	0.168670750613	0.26846094983	1.04386677018	-9.3e-06	9e-07	-2.97e-05
7.091	1.29526309814	-0.0885854614258	9.81383260498	30.9735294118	0.221963246857	0.313093415434	1.22519448865	-1.08e-05	-1.2e-06	-3.12e-05
7.1	1.13245738525	0.031124621582	9.71567033691	30.9735294118	0.286980092274	0.383705972958	1.39000153329	-9.9e-06	-3e-07	-2.97e-05
7.11	1.08457335205	0.0215478149414	9.87368764648	30.9735294118	0.361456355776	0.405555896418	1.51124196224	-1.23e-05	-1.5e-06	-3.03e-05
7.12	1.06781394043	0.00957680664062	9.96466730957	30.9735294118	0.35586064367	0.426339969953	1.53056049213	-1.14e-05	-6e-07	-2.94e-05
7.131	1.02711251221	0.102950671387	9.91199487305	31.0676470588	0.303101072388	0.45844869894	1.69963093647	-1.05e-05	-2.1e-06	-3.09e-05
7.14	1.21146604004	0.110133276367	9.73003554687	31.0676470588	0.179862174824	0.477101072625	1.92772282039	-1.17e-05	-3e-07	-3.15e-05
7.15	1.2617442749	0.0861912597656	9.560047229	30.9735294118	0.152016845536	0.551977029848	2.31156202459	-1.14e-05	-6e-07	-2.94e-05
7.16	0.928950244141	-0.167594116211	9.98142672119	31.0676470588	0.105918836285	0.558771823119	2.44279479659	-1.17e-05	-9e-07	-3.15e-05
7.171	0.835576379395	-0.227449157715	9.94790789795	30.9735294118	0.0949938745551	0.540785605637	2.47064012588	-1.29e-05	-2.1e-06	-3.15e-05
7.18	0.974440075684	-0.268150585937	9.80665	30.9735294118	0.277520674191	0.63524655523	2.94107963647	-1.14e-05	-1.8e-06	-3.18e-05
7.19	0.696712683105	-0.14844050293	9.99339772949	30.9735294118	0.574359878271	0.687473201549	3.43270291432	-1.14e-05	-6e-07	-3.06e-05
7.2	0.371101257324	0.031124621582	10.3980178101	31.0676470588	0.65283307899	0.727442573732	3.40059418534	-1.47e-05	3e-07	-2.97e-05
7.211	0.215478149414	0.141257897949	10.4578728516	30.9735294118	0.622456356131	0.696000000948	3.00956049415	-1.38e-05	-3e-06	-3.18e-05
7.22	0.213083947754	0.248996972656	10.4554786499	31.0676470588	0.551977029848	0.593278714437	2.61133231596	-1.38e-05	-2.4e-06	-3.12e-05
7.23	0.196324536133	0.284909997559	10.3261917603	30.9735294118	0.383572741717	0.41474885202	2.16980398458	-1.35e-05	-2.7e-06	-3.15e-05
7.24	0.438138903809	0.349553442383	10.046070166	30.9735294118	0.235552833399	0.38850229762	1.79009494884	-1.5e-05	-2.4e-06	-3.12e-05
7.249	0.490811340332	0.232237561035	9.85213983154	30.9735294118	0.173600306515	0.524131700561	1.66059418297	-1.32e-05	-1.2e-06	-3.24e-05
7.26	0.409408483887	0.198718737793	10.0053687378	30.8794117647	0.11124808591	0.611664625642	1.54801378465	-1.35e-05	-2.1e-06	-3.09e-05
7.27	0.45250411377	0.126892687988	10.0053687378	30.9735294118	0.2532725884	0.658562022336	1.46501072175	-1.5e-05	-4.2e-06	-3.3e-05
7.28	0.363918652344	0.00478840332031	9.93354268799	30.9735294118	0.52173353823	0.65936140978	1.46874119649	-1.38e-05	-2.4e-06	-3.24e-05
7.289	-0.0263362182617	0.126892687988	10.067617981	30.9735294118	0.714252680912	0.547713630149	1.44049617348	-1.23e-05	-3.3e-06	-3.27e-05
7.3	-0.031124621582	0.277727392578	10.2495773071	30.9735294118	0.728641654897	0.302301684945	1.2089402773	-1.44e-05	-4.2e-06	-3.12e-05
7.31	0.0694318481445	0.469263525391	10.1969048706	31.0676470588	0.600739663912	0.100189892939	0.857609495808	-1.47e-05	-5.1e-06	-3.21e-05
7.32	0.0574608398438	0.488417138672	10.5105452881	31.0676470588	0.448989280857	-0.059154670831	0.58075497782	-1.47e-05	-4.5e-06	-3.39e-05
7.329	0.0239420166016	0.60573302002	10.6709567993	30.9735294118	0.280851455206	-0.192385911441	0.325617152051	-1.41e-05	-3.3e-06	-3.15e-05
7.34	0.0359130249023	0.687135876465	10.5799771362	31.0676470588	0.00452986218075	-0.273390505732	-0.041701378311	-1.56e-05	-3e-06	-3.3e-05
7.35	0.318428820801	0.624886633301	10.5344873047	30.9735294118	-0.242081164189	-0.244346095279	-0.385304747845	-1.44e-05	-2.4e-06	-3.3e-05
7.36	-0.500388146973	0.45250411377	10.546458313	30.9735294118	-0.453918836759	-0.250208269866	-0.774606432908	-1.53e-05	-2.7e-06	-3.15e-05
7.369	0.514753356934	0.45489831543	10.1562034424	31.0676470588	-0.494421133905	-0.197581929825	-1.04493262011	-1.32e-05	-3e-06	-3.24e-05
7.379	0.330399829102	0.248996972656	9.94311949463	31.0676470588	-0.383572741717	-0.113113323278	-1.05066156345	-1.29e-05	-3.3e-06	-3.27e-05
7.39	0.179565124512	0.126892687988	9.90960067139	30.9735294118	-0.227825421444	-0.145088821025	-1.18935528493	-1.41e-05	-5.7e-06	-3.27e-05
7.4	0.179565124512	0.404620080566	9.92636008301	30.9735294118	-0.144955589784	-0.230223583775	-1.43809801115	-1.41e-05	-3.3e-06	-3.09e-05
7.409	0.165199914551	0.428562097168	9.84735142822	30.9735294118	-0.170669219222	-0.31229402799	-1.84432006377	-1.35e-05	-3.3e-06	-3.03e-05
7.419	0.0790086547852	0.268150585937	9.89284125977	30.8794117647	-0.250874426069	-0.407021440064	-2.25920214703	-1.32e-05	-3e-06	-3.18e-05
7.43	-0.225054956055	0.366312854004	10.1418382324	30.9735294118	-0.512807045109	-0.477101072625	-2.97678560895	-1.32e-05	-2.4e-06	-3.18e-05
7.439	-0.222660754395	0.232237561035	10.1538092407	31.0676470588	-0.825101073099	-0.619791731319	-4.09352986775	-1.26e-05	-3e-06	-3.18e-05
7.449	0.272938989258	0.112527478027	10.3525279785	30.9735294118	-1.04653139499	-0.70079632561	-4.36572129232	-1.32e-05	-3e-06	-3.24e-05
7.459	0.646434448242	-0.232237561035	10.307038147	30.9735294118	-1.14312404444	-0.717183768205	-4.36572129232	-1.23e-05	-2.1e-06	-3.27e-05
7.47	0.706289489746	-0.60812722168	9.98142672119	30.9735294118	-0.910102604609	-0.689205207677	-4.36572129232	-1.11e-05	-2.7e-06	-3.27e-05
7.479	1.04866032715	-0.61530982666	9.60074865723	30.9735294118	-0.501349158416	-0.642707504704	-4.18426034261	-1.14e-05	-2.4e-06	-3.18e-05
7.489	1.12527478027	-0.517147558594	9.40202991943	30.9735294118	-0.0341071975962	-0.576225115639	-3.231523741	-1.11e-05	-9e-07	-3.03e-05
7.499	0.993593688965	-0.325611425781	9.50498059082	31.0676470588	0.265929556258	-0.494021440183	-2.65369985048	-1.08e-05	-3e-06	-3.06e-05
7.51	0.76375032959	-0.0478840332031	9.70130512695	31.0676470588	0.464310873527	-0.488159265596	-2.38537213189	-9.9e-06	-9e-07	-2.97e-05
7.519	0.45968671875	-0.30166940918	10.1921164673	30.9735294118	0.44539203736	-0.545581930299	-2.41961256072	-1.11e-05	-1.5e-06	-3.15e-05
7.529	0.46208092041	-0.562637390137	10.539275708	31.0676470588	0.345601838143	-0.625254212184	-3.01955283719	-1.05e-05	-1.5e-06	-3.03e-05
7.539	0.708683691406	-0.45968671875	10.3549221802	30.9735294118	0.236485452083	-0.687073507827	-3.63961103099	-1.05e-05	-2.1e-06	-3.03e-05
7.549	0.62009822998	-0.450109912109	10.165780249	30.9735294118	0.192252680201	-0.684542114255	-4.1530842323	-1.02e-05	-6e-07	-3.12e-05
7.559	0.76614453125	0.0383072265625	10.2663367187	30.9735294118	0.167338438206	-0.74889280347	-4.36572129232	-6.9e-06	-9e-07	-3.09e-05
7.569	0.976834277344	-0.0550666381836	10.2735193237	31.0676470588	0.0992572742546	-0.715851455799	-4.36572129232	-8.4e-06	-1.2e-06	-3e-05
7.579	0.967257470703	0.119710083008	10.2950671387	31.0676470588	0.165206738357	-0.719981624258	-4.36572129232	-7.5e-06	-2.7e-06	-3.03e-05
7.589	1.33117612305	0.857124194336	9.67496890869	31.0676470588	0.422076570253	-0.837091884754	-4.36358959247	-5.7e-06	-1.5e-06	-3.09e-05
7.599	1.35272393799	0.0335188232422	9.82580361328	30.9735294118	0.520934150786	-0.690937213805	-4.18865697355	-6e-06	-6e-07	-3.06e-05
7.609	1.40060797119	0.244208569336	10.3094323486	31.0676470588	0.856810108365	-0.689071976436	-4.04569985237	-5.7e-06	-2.1e-06	-2.97e-05
7.619	1.72143099365	0.375889660645	10.5512467163	30.8794117647	0.899177642879	-0.758085759072	-4.12923584023	-4.2e-06	-6e-07	-3e-05
7.628	1.63763393555	0.567425793457	10.5704003296	30.9735294118	0.805782543211	-0.82296937325	-4.30256968427	-3.3e-06	-2.7e-06	-3.03e-05
7.639	1.29526309814	1.00317049561	10.060435376	30.9735294118	0.660294028464	-0.798055131255	-4.33707657559	-4.8e-06	-1.2e-06	-3e-05
7.649	1.20907183838	1.65678754883	9.63187327881	31.0676470588	0.462179173677	-0.656430322487	-4.16840582497	-3.9e-06	-9e-07	-2.91e-05
7.659	1.14682259521	1.84592947998	9.40681832275	30.9735294118	0.264730475093	-0.597675345378	-3.85344717217	-2.4e-06	-1.8e-06	-2.94e-05
7.668	0.703895288086	1.76213242187	9.43794294434	31.0676470588	0.174399693959	-0.50641194556	-3.60523737091	-1.5e-06	-1.5e-06	-2.97e-05
7.678	0.818816967773	1.23301385498	9.23922420654	30.9735294118	0.150151608168	-0.396762634537	-3.6891730525	3e-07	-9e-07	-3.15e-05
7.689	0.859518395996	1.48679923096	9.73242974854	30.9735294118	0.127901990986	-0.404756508974	-3.9070061309	-2.1e-06	-9e-07	-2.97e-05
7.699	1.08217915039	1.75016141357	9.92396588135	31.0676470588	0.0908637060962	-0.427006126156	-3.98734456898	0.0	-1.8e-06	-2.88e-05
7.708	0.902614025879	2.06380183105	10.2136642822	31.0676470588	0.02837825425	-0.378110260852	-3.83252986739	-1.8e-06	-3e-06	-3e-05
7.718	1.09893856201	2.10450325928	9.98382092285	31.0676470588	-0.186656968095	-0.385437979085	-3.77470750897	-1.5e-06	-1.5e-06	-2.97e-05
7.729	0.852335791016	1.90578452148	9.52652840576	30.9735294118	-0.520401225824	-0.333744257729	-3.79735681987	9e-07	-3.9e-06	-2.97e-05
7.739	0.972045874023	1.66157595215	9.76116016846	31.0676470588	-0.613663094251	-0.468174579504	-3.8650382901	9e-07	-3.9e-06	-2.91e-05
7.748	-1.32878192139	-0.0694318481445	13.0651584595	31.0676470588	-0.806315468173	-1.11541194639	-4.36572129232	6e-07	-4.8e-06	-2.88e-05
7.758	4.76924970703	5.73411297607	6.21774171143	30.9735294118	-0.704393569106	-0.8470842278	-4.36572129232	1.2e-06	-4.2e-06	-2.94e-05
7.769	0.890643017578	2.33913502197	9.58638344727	30.9735294118	-0.652566616509	-0.924225116113	-4.07607657523	2.4e-06	-4.2e-06	-3e-05
7.779	0.493205541992	1.75734401855	9.18894597168	30.9735294118	-0.63098315553	-0.943676877242	-3.89248392567	1.2e-06	-4.8e-06	-2.94e-05
7.788	1.09893856201	1.65199914551	9.81143840332	30.9735294118	-0.774073507946	-1.00469678544	-3.83039816754	1.2e-06	-5.4e-06	-3e-05
7.798	1.74297880859	0.677559069824	8.81066210937	31.0676470588	-1.09076416688	-1.39946095137	-4.36572129232	3.9e-06	-5.7e-06	-2.79e-05
7.809	2.10210905762	4.82910474854	10.2376062988	30.9735294118	-1.05652373804	-1.43676569874	-4.36572129232	4.2e-06	-7.2e-06	-2.82e-05
7.818	0.950498059082	1.76931502686	10.7954552856	30.9735294118	-0.747027566102	-1.37894334032	-3.48959265406	3e-06	-6.6e-06	-2.88e-05
7.828	1.56580788574	1.30723410645	11.7172229248	30.9735294118	-0.584751915038	-1.41025268186	-2.29131087602	3.9e-06	-8.1e-06	-2.97e-05
7.838	0.938527050781	3.0286651001	10.5344873047	31.0676470588	-0.0194517611291	-1.24624502467	-4.36572129232	5.4e-06	-7.2e-06	-3.06e-05
7.848	0.380678063965	-2.22900174561	10.7834842773	31.0676470588	0.105385911323	-1.12447167075	-4.29724043464	3.9e-06	-7.5e-06	-2.85e-05
7.858	0.339976635742	-0.339976635742	10.0412817627	31.0676470588	0.236085758361	-0.702528331738	-4.36572129232	3.9e-06	-8.1e-06	-2.97e-05
7.868	1.05105452881	0.878672009277	9.03092866211	30.9735294118	0.357192956076	-0.413283308373	-4.36572129232	3.9e-06	-9.9e-06	-2.91e-05
7.878	-0.031124621582	2.73657249756	9.7587659668	31.0676470588	0.257402756859	-0.298171516486	-4.36572129232	3.9e-06	-1.11e-05	-2.97e-05
7.888	0.045489831543	3.10767375488	10.1490208374	31.0676470588	0.400892802996	-0.759950996441	-3.51797090831	6e-06	-1.02e-05	-3e-05
7.898	2.52109434814	2.30082779541	7.03177027588	30.9735294118	0.215434916067	-0.623122512334	-3.34130628326	3.9e-06	-1.17e-05	-2.91e-05
7.908	2.18351191406	3.61285030518	8.18098707275	31.0676470588	0.107650842413	-0.357725881039	-3.31985605353	3.6e-06	-1.08e-05	-2.88e-05
7.918	2.78685073242	4.07493122559	8.16183345947	30.9735294118	-0.0804716693286	-0.129633997114	-2.90817152004	5.1e-06	-1.11e-05	-3.03e-05
7.928	1.76931502686	4.01747038574	9.64863269043	31.0676470588	-0.1092496173	0.0515604901162	-2.30596631248	4.2e-06	-1.26e-05	-2.94e-05
7.938	3.36624753418	2.36786544189	8.71010563965	31.0676470588	-0.412883614651	0.00492955590258	-1.77850383091	4.8e-06	-1.2e-05	-3e-05
7.948	1.45088620605	2.4396914917	9.46906756592	31.0676470588	-0.487493109393	0.0325084227089	-1.94837366268	6.3e-06	-1.23e-05	-2.91e-05
7.958	0.45968671875	3.03105930176	9.17697496338	30.9735294118	-0.433667688186	-0.0499617152288	-1.85204747572	5.1e-06	-1.29e-05	-2.79e-05
7.968	0.402225878906	2.90895501709	9.03092866211	30.9735294118	-0.365320061753	-0.271125574642	-1.23052373828	6.3e-06	-1.29e-05	-2.91e-05
7.977	-0.210689746094	3.30878669434	9.34456907959	30.9735294118	-0.250874426069	-0.592879020716	-0.65070137914	6e-06	-1.32e-05	-2.76e-05
7.988	-0.751779321289	2.45884510498	9.88087025146	31.0676470588	-0.164140888432	-0.759950996441	0.0377044410927	5.7e-06	-1.29e-05	-2.97e-05
7.998	-0.507570751953	2.04704241943	10.0580411743	30.9735294118	-0.211437978848	-0.975252681267	0.51747013853	4.8e-06	-1.44e-05	-3.06e-05
8.007	0.550666381836	0.91219083252	10.1035310059	31.0676470588	-1.23731853155	-2.21736753748	-0.690937213805	5.4e-06	-1.32e-05	-2.94e-05
8.017	2.49715233154	-4.8554409668	10.919953772	31.0676470588	-0.471238898038	-3.28654824337	-2.53672282122	6e-06	-1.32e-05	-2.82e-05
8.028	2.64080443115	-1.62805712891	10.1131078125	31.0676470588	0.831096478927	-3.65293415505	-4.36572129232	3.3e-06	-1.41e-05	-3.09e-05
8.038	0.349553442383	8.6167317749	7.9080480835	31.0676470588	-0.843886678025	-4.36572129232	-4.36572129232	4.5e-06	-1.35e-05	-2.91e-05
8.047	3.60806190186	7.82903942871	7.10120212402	31.0676470588	-0.850415008815	-4.36572129232	-4.36572129232	6e-06	-1.5e-05	-2.94e-05
8.057	2.08774384766	11.2048637695	10.2328178955	30.9735294118	-1.21826646414	-3.34596937669	-4.36572129232	5.1e-06	-1.53e-05	-2.91e-05
8.068	1.97761057129	7.3310454834	6.91206019287	31.0676470588	-1.4714058213	-2.50754517953	-1.77757121222	3.9e-06	-1.77e-05	-2.85e-05
8.078	4.5250411377	0.474051928711	6.5074401123	30.9735294118	-1.51803675551	-0.939147015062	-0.183992343283	3e-06	-1.74e-05	-3e-05
8.087	2.97838686523	2.36547124023	8.42758984375	31.0676470588	-1.01921899067	0.23581929588	-0.268727412311	2.4e-06	-1.62e-05	-3.18e-05
8.097	2.96162745361	2.22421334229	8.48265648193	31.0676470588	-0.934217459159	0.82736600419	0.0760750383885	4.5e-06	-1.71e-05	-3.09e-05
8.108	0.845153186035	2.95205064697	9.25837781982	31.0676470588	-0.864803982801	0.826433385505	0.537721287103	3.9e-06	-1.77e-05	-3.15e-05
8.118	1.80522805176	1.48201082764	10.5775829346	30.9735294118	-1.05425880695	0.379709035739	0.519468607139	3.9e-06	-1.65e-05	-3.21e-05
8.127	1.93451494141	1.26413847656	9.92636008301	31.0676470588	-1.02361562161	-0.230090352534	-0.0867335376373	4.2e-06	-1.8e-05	-3.12e-05
8.137	2.29125098877	1.05105452881	10.4171714233	30.9735294118	-1.09582695402	-0.380241960702	-0.131898928204	3.3e-06	-1.77e-05	-3.21e-05
8.147	2.90656081543	0.0957680664062	10.1897222656	31.0676470588	-1.0173537533	-0.570895866015	-0.821104135881	4.2e-06	-1.74e-05	-3.12e-05
8.158	2.82036955566	0.502782348633	10.7020814209	31.0676470588	-0.958865238672	-0.472704441685	-1.21586830181	3.3e-06	-1.83e-05	-3.15e-05
8.167	2.74136090088	0.974440075684	9.94072529297	31.0676470588	-0.829098010318	-0.434200613149	-1.40838744449	2.4e-06	-1.74e-05	-3.06e-05
8.177	2.4396914917	1.72861359863	9.96227310791	31.0676470588	-0.786730475804	-0.391433384913	-1.26729556068	4.5e-06	-1.77e-05	-3.15e-05
8.187	2.94486804199	2.04704241943	9.84735142822	31.0676470588	-0.761816233809	-0.233021439827	-1.11594487135	2.4e-06	-1.56e-05	-3.24e-05
8.197	2.34871182861	1.592144104	9.68215151367	31.0676470588	-0.756886677907	-0.108183767376	-0.97365390638	2.1e-06	-1.71e-05	-3.39e-05
8.207	5.09964953613	0.478840332031	7.52258161621	30.9735294118	0.00572894334624	-0.433800919427	-1.05665696928	1.8e-06	-1.86e-05	-3.12e-05
8.217	3.16034619141	0.292092602539	9.1338793335	31.0676470588	-0.12656967858	0.258601838025	-1.16950383008	3e-06	-1.74e-05	-3.18e-05
8.227	2.42053787842	0.545877978516	9.93114848633	31.0676470588	-0.0246477795129	0.45192036815	-1.46407810307	3e-06	-1.68e-05	-3.24e-05
8.237	2.60010300293	0.787692346191	9.80425579834	31.0676470588	0.0486294028227	0.571695253459	-1.58225421349	2.4e-06	-1.74e-05	-3.18e-05
8.247	2.35828863525	0.950498059082	9.90241806641	30.9735294118	-0.0752756509448	0.651367535344	-1.83139663343	2.4e-06	-1.92e-05	-3.12e-05
8.257	1.98000477295	1.47722242432	10.0269165527	31.0676470588	-0.160277182454	0.586617152407	-1.68244410643	1.2e-06	-1.8e-05	-3.18e-05
8.267	2.27209737549	1.34075292969	9.77313117676	31.0676470588	-0.344669219459	0.495886677551	-1.59371210018	2.4e-06	-1.86e-05	-3.12e-05
8.276	1.98718737793	1.01035310059	9.50258638916	31.0676470588	-0.506278714319	0.470039816873	-1.7210811662	1.5e-06	-2.01e-05	-3.15e-05
8.287	1.92972653809	1.68791217041	9.65581529541	30.9735294118	-0.547713630149	0.488026034355	-1.75918530102	3e-06	-2.1e-05	-3.24e-05
8.297	1.67115275879	1.44370360107	10.0293107544	30.9735294118	-0.506278714319	0.331212864157	-1.49552067585	9e-07	-1.77e-05	-3.21e-05
8.307	-0.0383072265625	1.98479317627	10.7595422607	31.1617647059	-0.469107198189	-0.670019909029	0.816707504941	9e-07	-1.89e-05	-3.21e-05
8.316	2.51870014648	5.57370146484	5.516240625	30.9735294118	-0.0972588056455	0.357192956076	1.97128943607	1.5e-06	-1.89e-05	-3.27e-05
8.327	-1.15161099854	-1.18034141846	13.005303418	30.9735294118	0.24661102637	0.525197550486	1.14472281932	9e-07	-2.01e-05	-3.15e-05
8.337	3.38061274414	2.81318695068	8.55448253174	31.0676470588	-0.415548239463	-0.832961716295	0.418079633035	9e-07	-1.89e-05	-3.21e-05
8.347	2.51630594482	0.754173522949	9.01895765381	31.0676470588	-0.138427258994	0.0315758040246	0.481364472325	3e-06	-2.04e-05	-3.12e-05
8.356	0.931344445801	1.15161099854	10.6398321777	31.0676470588	-0.154814701589	0.0719448699295	0.664024503202	1.2e-06	-1.86e-05	-3.3e-05
8.367	3.50271702881	1.72382519531	9.13148513184	30.9735294118	-0.637777948801	-0.0309096478216	0.589148545979	2.1e-06	-1.89e-05	-3.03e-05
8.377	3.65594593506	0.337582434082	9.16021555176	30.9735294118	-0.949805514311	0.29910413517	0.151084226852	3e-07	-1.95e-05	-3.21e-05
8.386	1.2617442749	-0.107739074707	10.0939541992	30.9735294118	-0.719182236814	0.048895865304	-0.0277120980469	1.5e-06	-1.83e-05	-3.27e-05
8.396	1.12766898193	-0.591367810059	10.0771947876	31.0676470588	-0.54584839278	-0.217433384676	-0.524797856764	1.5e-06	-1.83e-05	-3.21e-05
8.407	1.10372696533	-0.524330163574	10.1250788208	31.0676470588	-0.224627871669	-0.501215927176	-0.905572742428	9e-07	-2.07e-05	-3.27e-05
8.417	1.4844050293	0.0981622680664	9.86889924316	30.9735294118	0.0238483920692	-0.53492343105	-1.15698009346	3e-07	-1.95e-05	-3.15e-05
8.426	1.63045133057	0.507570751953	9.45949075928	31.0676470588	0.0179862174824	-0.504946401913	-1.56546707717	3e-07	-1.89e-05	-3.33e-05
8.436	1.97521636963	0.555454785156	9.71327613525	30.9735294118	-0.181727412192	-0.454451761722	-1.95490199347	3e-07	-1.95e-05	-3.39e-05
8.446	2.4516625	1.09654436035	9.34696328125	31.0676470588	-0.352796325136	-0.247277182573	-2.45585145817	1.5e-06	-1.95e-05	-3.27e-05
8.457	2.48278712158	1.02950671387	9.30626185303	31.0676470588	-0.512274120146	0.0491623277852	-2.68514242326	1.5e-06	-1.95e-05	-3.21e-05
8.466	2.05901342773	0.902614025879	8.88488236084	31.0676470588	-0.539852986953	0.297505360283	-2.68993874792	9e-07	-2.01e-05	-3.15e-05
8.476	1.1899182251	0.0646434448242	9.33499227295	31.0676470588	-0.531059725072	0.220897396932	-2.91523277579	1.8e-06	-2.04e-05	-3.18e-05
8.486	0.811634362793	-0.0239420166016	9.37569370117	31.0676470588	-0.784732007194	-0.0800719756068	-3.19888208705	3e-07	-1.89e-05	-3.33e-05
8.497	1.62566292725	0.691924279785	9.83298621826	31.0676470588	-1.16790505519	-0.135496171701	-3.02528178054	-6e-07	-2.22e-05	-3.36e-05
8.506	2.09253225098	0.948103857422	10.1274730225	31.0676470588	-2.10185605187	0.12017457903	-2.67821439875	-6e-07	-1.86e-05	-3.3e-05
8.516	2.82755216064	1.43412679443	13.3835872803	31.0676470588	-2.28571516391	0.820038285956	-2.58135528682	-3e-07	-2.19e-05	-3.33e-05
8.526	2.99514627686	1.07978494873	12.5815297241	30.9735294118	-1.79435834854	0.3710490051	-1.97661868569	9e-07	-2.13e-05	-3.21e-05
8.537	2.03028300781	1.07739074707	10.546458313	30.9735294118	-1.536022973	0.328947933067	-1.62355589808	-2.1e-06	-2.31e-05	-3.33e-05
8.546	1.47961662598	0.629675036621	9.84495722656	31.0676470588	-1.54108576014	0.142290964972	-1.98061562291	-9e-07	-2.25e-05	-3.39e-05
8.556	1.10133276367	1.42933839111	9.39245311279	30.9735294118	-1.34710107381	-0.415681470704	-3.20221286807	-2.7e-06	-2.13e-05	-3.45e-05
8.566	1.2378022583	0.344765039063	9.13148513184	30.9735294118	-0.670819296473	-0.355594181189	-4.36572129232	-3.6e-06	-2.28e-05	-3.36e-05
8.576	-0.0622492431641	-1.06541973877	9.44991395264	31.0676470588	0.273656968213	-0.319754977465	-4.36572129232	-4.2e-06	-2.46e-05	-3.42e-05
8.586	1.13245738525	0.493205541992	10.046070166	31.0676470588	1.12527105819	-0.57422664703	-4.36572129232	-4.5e-06	-2.19e-05	-3.39e-05
8.596	1.85311208496	1.32638771973	10.1442324341	31.0676470588	1.1095497718	-0.25100765731	-4.36572129232	-3.6e-06	-2.46e-05	-3.24e-05
8.606	1.98000477295	1.64721074219	11.0013566284	31.0676470588	0.457382849015	0.0274456355657	-4.36572129232	-5.1e-06	-2.43e-05	-3.45e-05
8.615	1.43652099609	1.23540805664	10.6948988159	30.9735294118	-0.413016845892	0.167604900688	-4.11258193516	-3e-06	-2.28e-05	-3.24e-05
8.626	2.03028300781	1.30244570312	10.8193973022	30.9735294118	-1.63194946624	0.231822358662	-3.25763706416	-5.4e-06	-2.4e-05	-3.42e-05
8.636	1.51074124756	0.751779321289	10.0005803345	31.1617647059	-2.27932006436	0.343470138293	-2.89284992737	-4.8e-06	-2.4e-05	-3.42e-05
8.646	1.5801730957	0.404620080566	9.76834277344	31.1617647059	-2.23815161101	0.373846861152	-2.49182389313	-5.1e-06	-2.49e-05	-3.39e-05
8.655	1.47722242432	0.31364041748	9.82580361328	31.0676470588	-1.87309801174	0.483496172175	-2.69286983521	-7.8e-06	-2.34e-05	-3.3e-05
8.666	1.46285721436	0.15562310791	8.66940421143	31.0676470588	-0.969523737921	1.06651608109	-3.47520368008	-7.5e-06	-2.43e-05	-3.39e-05
8.676	-9.42118353271	0.799663354492	6.80910952148	31.0676470588	2.36365543967	3.51983614568	-4.36572129232	-8.1e-06	-2.67e-05	-3.39e-05
8.686	1.44370360107	5.21935961914	13.9510130737	31.0676470588	1.6239555918	2.24547932925	-4.36572129232	-9e-06	-2.58e-05	-3.54e-05
8.695	0.550666381836	2.22660754395	13.7115929077	31.0676470588	-0.350398162805	0.436998469202	-4.11098316027	-8.7e-06	-2.37e-05	-3.21e-05
8.706	0.979228479004	0.816422766113	9.78510218506	31.0676470588	-0.56543338515	0.24234762667	-3.36795253139	-8.4e-06	-2.46e-05	-3.24e-05
8.716	1.06781394043	1.02711251221	11.6190606567	30.9735294118	-0.70519295655	0.449122512097	-2.84755130556	-1.08e-05	-2.52e-05	-3.24e-05
8.726	1.06781394043	0.938527050781	10.7116582275	31.0676470588	-1.13486370752	-0.259667687949	-2.18672435214	-1.08e-05	-2.46e-05	-3.36e-05
8.735	0.411802685547	0.526724365234	10.2184526855	30.9735294118	-1.44849004791	0.565166922669	-1.34390352404	-9.9e-06	-2.31e-05	-3.33e-05
