#time[s] ax ay az[m/s^2] temperature[C] gx gy gz[rad/s] magx magy magz[T]
0.111	9.2296473999	2.85867678223	-0.873883605957	26.8794117647	0.4760352227	-0.364120980588	0.533324656163	5.7e-06	-8.7e-06	-2.31e-05
0.121	9.25837781982	2.89698400879	-0.933738647461	26.9264705882	-0.0430336907171	-0.306964778366	0.553176111014	3e-06	-7.8e-06	-2.4e-05
0.131	9.21528218994	2.93050283203	-0.900219824219	26.9264705882	0.00599540582746	-0.0207840735352	0.00266462481221	3.3e-06	-7.5e-06	-2.31e-05
0.141	9.19612857666	2.94726224365	-0.852335791016	27.0205882353	0.0065283307899	-0.0202511485728	0.0145222052265	4.5e-06	-8.1e-06	-2.37e-05
0.151	9.17697496338	2.90656081543	-0.902614025879	26.9264705882	0.00306431853404	-0.018785604926	0.023581929588	4.8e-06	-6e-06	-2.4e-05
0.161	9.2057053833	2.87304199219	-0.876277807617	26.9264705882	-0.000799387443662	-0.0179862174824	0.0325084227089	4.8e-06	-7.8e-06	-2.34e-05
0.171	9.21288798828	2.89937821045	-0.857124194336	27.0205882353	-0.00399693721831	-0.015721286392	0.0419678407922	5.4e-06	-6.6e-06	-2.28e-05
0.181	9.16021555176	2.81079274902	-0.871489404297	27.1147058824	-0.00333078101526	-0.0162542113545	0.0390367534988	4.2e-06	-6e-06	-2.28e-05
0.191	9.2176763916	2.85867678223	-0.845153186035	27.0205882353	-0.00373047473709	-0.0174532925199	0.0297105666561	5.1e-06	-7.5e-06	-2.25e-05
0.201	9.2057053833	2.85628258057	-0.811634362793	27.1147058824	0.00319754977465	-0.0210505360164	0.0174532925199	4.2e-06	-7.2e-06	-2.28e-05
0.21	9.193734375	2.80839854736	-0.866701000977	27.1147058824	0.00732771823356	-0.0202511485728	0.00439663094014	4.5e-06	-7.5e-06	-2.25e-05
0.221	9.19612857666	2.88501300049	-0.818816967773	27.1147058824	0.010258805527	-0.0227825421444	0.00119908116549	6e-06	-7.2e-06	-2.34e-05
0.231	9.17697496338	2.88261879883	-0.845153186035	27.1147058824	0.00972588056455	-0.0218499234601	0.00293108729343	4.8e-06	-9e-06	-2.22e-05
0.241	9.14106193848	2.91374342041	-0.878672009277	27.1147058824	0.007860643196	-0.0222496171819	0.00279785605282	4.2e-06	-8.4e-06	-2.34e-05
0.25	9.1338793335	2.90895501709	-0.837970581055	27.1147058824	0.00679479327112	-0.0186523736854	0.010258805527	3e-06	-8.4e-06	-2.28e-05
0.261	9.22246479492	2.91374342041	-0.881066210937	27.1147058824	0.00466309342136	-0.0134563553016	0.0215834609789	3.3e-06	-8.1e-06	-2.31e-05
0.271	9.16739815674	2.91613762207	-0.828393774414	27.1147058824	0.00106584992488	-0.015721286392	0.0295773354155	5.1e-06	-8.7e-06	-2.31e-05
0.28	9.18415756836	2.92571442871	-0.852335791016	27.1147058824	-0.0038637059777	-0.0169203675575	0.0374379786115	3.3e-06	-7.5e-06	-2.31e-05
0.29	9.22246479492	2.90416661377	-0.871489404297	27.2088235294	-0.00293108729343	-0.0127901990986	0.0365053599272	3.9e-06	-8.1e-06	-2.25e-05
0.301	9.18894597168	2.87304199219	-0.866701000977	27.2088235294	0.00173200612793	-0.0173200612793	0.0305099540997	5.7e-06	-7.5e-06	-2.31e-05
0.311	9.22485899658	2.87304199219	-0.876277807617	27.2088235294	0.00679479327112	-0.0175865237606	0.0178529862418	3.9e-06	-8.1e-06	-2.37e-05
0.32	9.14824454346	2.79163913574	-0.816422766113	27.3029411765	0.0051960183838	-0.0226493109037	0.00826033691784	4.5e-06	-7.5e-06	-2.25e-05
0.33	9.23443580322	2.85628258057	-0.92416184082	27.2088235294	0.00599540582746	-0.0222496171819	-0.00013323124061	5.1e-06	-7.5e-06	-2.31e-05
0.34	9.13148513184	2.87064779053	-0.818816967773	27.1147058824	0.00692802451173	-0.0218499234601	0.00186523736854	3.9e-06	-8.1e-06	-2.25e-05
0.351	9.15542714844	2.94486804199	-0.816422766113	27.3029411765	0.00879326188028	-0.0207840735352	0.00572894334624	4.5e-06	-8.7e-06	-2.31e-05
0.36	9.13148513184	2.88740720215	-0.881066210937	27.2088235294	0.00572894334624	-0.0161209801138	0.01092496173	4.5e-06	-8.1e-06	-2.37e-05
0.37	9.23443580322	2.88740720215	-0.91458503418	27.3029411765	0.00466309342136	-0.0155880551514	0.0234486983474	5.1e-06	-6.3e-06	-2.31e-05
0.38	9.15542714844	2.89698400879	-0.845153186035	27.2088235294	-0.000532924962441	-0.0190520674073	0.0319754977465	4.2e-06	-7.8e-06	-2.34e-05
0.391	9.19612857666	2.84431157227	-0.785298144531	27.2088235294	-0.00186523736854	-0.0170535987981	0.033840735115	5.4e-06	-8.4e-06	-2.34e-05
0.4	9.2296473999	2.87783039551	-0.835576379395	27.3029411765	-0.00173200612793	-0.0161209801138	0.0263797856408	4.8e-06	-7.8e-06	-2.34e-05
0.41	9.17458076172	2.86107098389	-0.787692346191	27.3029411765	0.000932618684272	-0.0185191424448	0.0243813170317	4.8e-06	-7.8e-06	-2.28e-05
0.42	9.20331118164	2.91613762207	-0.847547387695	27.3029411765	0.00492955590258	-0.0182526799636	0.0170535987981	4.8e-06	-6e-06	-2.34e-05
0.431	9.15063874512	2.89219560547	-0.849941589355	27.3029411765	0.00612863706807	-0.0242480857911	0.0130566615798	6e-06	-6.6e-06	-2.22e-05
0.44	9.17218656006	2.85149417725	-0.957680664062	27.3029411765	0.00492955590258	-0.0190520674073	0.00679479327112	4.8e-06	-7.2e-06	-2.22e-05
0.45	9.17218656006	2.90656081543	-0.811634362793	27.3029411765	0.00732771823356	-0.0186523736854	0.00546248086502	4.2e-06	-6e-06	-2.28e-05
0.46	9.20091697998	2.85388837891	-0.900219824219	27.3029411765	0.00639509954929	-0.0190520674073	0.00279785605282	4.5e-06	-8.7e-06	-2.37e-05
0.47	9.13866773682	2.90656081543	-0.905008227539	27.3029411765	0.00599540582746	-0.0169203675575	0.0090597243615	4.8e-06	-8.4e-06	-2.34e-05
0.48	9.14824454346	2.97599266357	-0.802057556152	27.3029411765	0.0013323124061	-0.0197182236103	0.0218499234601	5.7e-06	-6.3e-06	-2.13e-05
0.49	9.18415756836	2.89219560547	-0.828393774414	27.3970588235	0.0013323124061	-0.0185191424448	0.0286447167312	4.8e-06	-7.8e-06	-2.28e-05
0.5	9.1697923584	2.89458980713	-0.833182177734	27.3029411765	-0.00359724349648	-0.0158545176326	0.0321087289871	3.9e-06	-8.7e-06	-2.37e-05
0.509	9.13627353516	2.89698400879	-0.842758984375	27.3029411765	0.000799387443662	-0.0195849923697	0.0302434916185	4.8e-06	-7.8e-06	-2.4e-05
0.52	9.19134017334	2.83952316895	-0.840364782715	27.3970588235	0.00213169984976	-0.0183859112042	0.0257136294378	4.8e-06	-6.6e-06	-2.28e-05
0.53	9.22007059326	2.85388837891	-0.833182177734	27.3970588235	0.00546248086502	-0.0191852986479	0.0189188361667	4.8e-06	-7.8e-06	-2.22e-05
0.54	9.14824454346	2.83234056396	-0.75896192627	27.3029411765	0.00426339969953	-0.0202511485728	0.0125237366174	5.7e-06	-7.5e-06	-2.25e-05
0.549	9.18894597168	2.85388837891	-0.849941589355	27.3970588235	0.00972588056455	-0.0195849923697	0.00866003063967	3.9e-06	-6.3e-06	-2.55e-05
0.56	9.16021555176	2.88980140381	-0.873883605957	27.3029411765	0.0065283307899	-0.020517611054	0.00639509954929	5.4e-06	-7.2e-06	-2.34e-05
0.57	9.22007059326	2.89458980713	-0.823605371094	27.4911764706	0.00373047473709	-0.0202511485728	0.00772741195539	5.1e-06	-8.7e-06	-2.19e-05
0.58	9.26077202148	2.89219560547	-0.91219083252	27.3970588235	0.00239816233098	-0.0163874425951	0.0134563553016	4.8e-06	-7.2e-06	-2.34e-05
0.589	9.13148513184	2.92332022705	-0.864306799316	27.3970588235	0.00346401225587	-0.0166539050763	0.0199846860915	4.8e-06	-7.8e-06	-2.28e-05
0.6	9.17218656006	2.91613762207	-0.809240161133	27.3970588235	0.00146554364671	-0.0161209801138	0.0238483920692	4.8e-06	-7.2e-06	-2.4e-05
0.61	9.17218656006	2.83234056396	-0.847547387695	27.3970588235	0.000532924962441	-0.0171868300387	0.0231822358662	4.5e-06	-6.9e-06	-2.19e-05
0.62	9.1219083252	2.85388837891	-0.828393774414	27.3970588235	0.00013323124061	-0.0190520674073	0.0270459418439	3.6e-06	-7.2e-06	-2.22e-05
0.629	9.17218656006	2.88501300049	-0.756567724609	27.3970588235	0.00426339969953	-0.0155880551514	0.0223828484225	5.4e-06	-7.2e-06	-2.46e-05
0.64	9.193734375	2.88261879883	-0.890643017578	27.3970588235	0.00586217458685	-0.0169203675575	0.018785604926	6e-06	-7.8e-06	-2.22e-05
0.65	9.22007059326	2.86585938721	-0.902614025879	27.4911764706	0.00759418071478	-0.0206508422946	0.0158545176326	5.4e-06	-7.8e-06	-2.34e-05
0.659	9.19852277832	2.91853182373	-0.790086547852	27.3970588235	0.00346401225587	-0.018119448723	0.0122572741361	4.8e-06	-7.2e-06	-2.28e-05
0.669	9.20091697998	2.86825358887	-0.905008227539	27.3970588235	0.00373047473709	-0.0195849923697	0.0110581929707	5.7e-06	-8.7e-06	-2.43e-05
0.679	9.10993731689	2.93768543701	-0.888248815918	27.4911764706	0.00426339969953	-0.0201179173321	0.010258805527	5.4e-06	-7.8e-06	-2.34e-05
0.69	9.19134017334	2.88022459717	-0.816422766113	27.4911764706	0.00612863706807	-0.0189188361667	0.0121240428955	4.5e-06	-5.7e-06	-2.25e-05
0.699	9.18415756836	2.90895501709	-0.837970581055	27.4911764706	0.00452986218075	-0.0173200612793	0.0142557427453	5.1e-06	-8.1e-06	-2.31e-05
0.709	9.193734375	2.90177241211	-0.835576379395	27.3970588235	0.00452986218075	-0.0179862174824	0.0194517611291	3.6e-06	-7.2e-06	-2.52e-05
0.719	9.21049378662	2.85867678223	-0.847547387695	27.4911764706	0.00186523736854	-0.0175865237606	0.0245145482723	3.6e-06	-8.4e-06	-2.28e-05
0.73	9.23683000488	2.96881005859	-0.782903942871	27.4911764706	-0.00119908116549	-0.0153215926702	0.0255803981972	4.5e-06	-7.5e-06	-2.31e-05
0.739	9.16260975342	2.87783039551	-0.825999572754	27.4911764706	0.00213169984976	-0.0151883614296	0.0271791730845	3.9e-06	-7.5e-06	-2.25e-05
0.749	9.17697496338	2.88980140381	-0.864306799316	27.5852941176	0.00506278714319	-0.0197182236103	0.021183767257	5.4e-06	-8.4e-06	-2.34e-05
0.759	9.18415756836	2.84191737061	-0.900219824219	27.4911764706	0.00239816233098	-0.0183859112042	0.0201179173321	5.7e-06	-7.5e-06	-2.43e-05
0.77	9.19852277832	2.88501300049	-0.91697923584	27.4911764706	0.00319754977465	-0.0191852986479	0.0125237366174	4.2e-06	-6.6e-06	-2.34e-05
0.779	9.22007059326	2.87064779053	-0.866701000977	27.4911764706	0.007860643196	-0.018119448723	0.00866003063967	4.2e-06	-6e-06	-2.28e-05
0.789	9.2057053833	2.86346518555	-0.782903942871	27.5852941176	0.00532924962441	-0.0194517611291	0.00959264932394	5.4e-06	-6.6e-06	-2.46e-05
0.799	9.17458076172	2.91374342041	-0.888248815918	27.3970588235	0.00399693721831	-0.0195849923697	0.007860643196	5.1e-06	-6.3e-06	-2.31e-05
0.809	9.1697923584	2.88740720215	-0.830787976074	27.4911764706	0.00626186830868	-0.0186523736854	0.013323124061	4.8e-06	-7.8e-06	-2.34e-05
0.819	9.18894597168	2.86107098389	-0.876277807617	27.5852941176	0.00239816233098	-0.0174532925199	0.0195849923697	5.4e-06	-6.6e-06	-2.34e-05
0.829	9.10036051025	2.87064779053	-0.876277807617	27.5852941176	0.00213169984976	-0.0193185298885	0.0251807044753	5.1e-06	-6.9e-06	-2.37e-05
0.839	9.17936916504	2.84431157227	-0.866701000977	27.5852941176	-0.00159877488732	-0.0159877488732	0.025980091919	4.2e-06	-7.2e-06	-2.34e-05
0.848	9.1697923584	2.88501300049	-0.780509741211	27.4911764706	0.0013323124061	-0.0158545176326	0.02837825425	5.4e-06	-9e-06	-2.22e-05
0.859	9.18894597168	2.89219560547	-0.799663354492	27.4911764706	0.00373047473709	-0.0165206738357	0.0233154671068	6e-06	-7.8e-06	-2.22e-05
0.869	9.22485899658	2.85149417725	-0.780509741211	27.6794117647	0.00413016845892	-0.0207840735352	0.0189188361667	4.5e-06	-8.1e-06	-2.43e-05
0.879	9.16500395508	2.81558115234	-0.833182177734	27.5852941176	0.00599540582746	-0.0185191424448	0.0131898928204	4.2e-06	-6.6e-06	-2.34e-05
0.888	9.15303294678	2.86346518555	-0.900219824219	27.5852941176	0.00719448699295	-0.0207840735352	0.007860643196	3.9e-06	-7.5e-06	-2.37e-05
0.899	9.19852277832	2.88261879883	-0.852335791016	27.5852941176	0.00706125575234	-0.0209173047758	0.00719448699295	4.5e-06	-7.5e-06	-2.49e-05
0.909	9.20331118164	2.90416661377	-0.792480749512	27.5852941176	0.00612863706807	-0.0186523736854	0.00719448699295	3.9e-06	-8.7e-06	-2.49e-05
0.919	9.12909093018	2.90656081543	-0.797269152832	27.5852941176	0.00559571210563	-0.0201179173321	0.015055130189	4.2e-06	-6.6e-06	-2.28e-05
0.928	9.17218656006	2.81079274902	-0.821211169434	27.5852941176	0.00359724349648	-0.0186523736854	0.0197182236103	3.9e-06	-6.9e-06	-2.49e-05
0.939	9.22007059326	2.94965644531	-0.809240161133	27.4911764706	-0.000266462481221	-0.0178529862418	0.0242480857911	5.7e-06	-7.5e-06	-2.31e-05
0.949	9.1817633667	2.91853182373	-0.893037219238	27.5852941176	0.000532924962441	-0.0146554364671	0.0287779479718	4.5e-06	-6.3e-06	-2.43e-05
0.959	9.22007059326	2.85867678223	-0.881066210937	27.5852941176	-0.00013323124061	-0.0146554364671	0.0346401225587	4.5e-06	-7.5e-06	-2.25e-05
0.968	9.23443580322	2.91613762207	-0.883460412598	27.5852941176	0.000932618684272	-0.0219831547007	0.0231822358662	3.9e-06	-8.7e-06	-2.37e-05
0.978	9.18655177002	2.87783039551	-0.794874951172	27.5852941176	0.00226493109037	-0.0183859112042	0.0191852986479	4.5e-06	-8.7e-06	-2.43e-05
0.989	9.18894597168	2.86825358887	-0.75896192627	27.5852941176	0.00399693721831	-0.020517611054	0.01092496173	6e-06	-7.2e-06	-2.28e-05
0.998	9.17697496338	2.87064779053	-0.825999572754	27.5852941176	0.00839356815845	-0.0190520674073	0.00679479327112	5.4e-06	-5.4e-06	-2.22e-05
1.008	9.15063874512	2.87064779053	-0.814028564453	27.6794117647	0.00772741195539	-0.0194517611291	0.00626186830868	4.2e-06	-7.2e-06	-2.28e-05
1.018	9.22246479492	2.94007963867	-0.77093293457	27.6794117647	0.00719448699295	-0.0194517611291	0.00692802451173	6e-06	-8.4e-06	-2.4e-05
1.029	9.24401260986	2.88980140381	-0.821211169434	27.6794117647	0.00213169984976	-0.0191852986479	0.0162542113545	4.5e-06	-8.1e-06	-2.43e-05
1.038	9.20331118164	2.85149417725	-0.821211169434	27.6794117647	0.00359724349648	-0.0193185298885	0.0197182236103	6e-06	-7.2e-06	-2.1e-05
1.048	9.12909093018	2.89458980713	-0.840364782715	27.6794117647	0.000932618684272	-0.0162542113545	0.0265130168814	4.5e-06	-8.1e-06	-2.25e-05
1.058	9.20331118164	2.84670577393	-0.814028564453	27.6794117647	0.00319754977465	-0.0170535987981	0.0263797856408	4.5e-06	-7.5e-06	-2.25e-05
1.069	9.19612857666	2.91613762207	-0.732625708008	27.6794117647	0.00186523736854	-0.0195849923697	0.0286447167312	5.7e-06	-7.5e-06	-2.25e-05
1.078	9.22007059326	2.85149417725	-0.91458503418	27.6794117647	0.0013323124061	-0.0195849923697	0.0223828484225	5.4e-06	-6.6e-06	-2.28e-05
1.088	9.12909093018	2.86107098389	-0.833182177734	27.6794117647	0.00253139357159	-0.0169203675575	0.0162542113545	6e-06	-7.8e-06	-2.34e-05
1.098	9.1817633667	2.93289703369	-0.91458503418	27.6794117647	0.0051960183838	-0.0170535987981	0.013323124061	4.5e-06	-6.3e-06	-2.55e-05
1.108	9.21049378662	2.86825358887	-0.847547387695	27.6794117647	0.00346401225587	-0.0206508422946	0.00852679939906	5.4e-06	-7.2e-06	-2.22e-05
1.118	9.17936916504	2.90177241211	-0.861912597656	27.6794117647	0.00945941808333	-0.0195849923697	0.00679479327112	5.1e-06	-6.9e-06	-2.25e-05
1.128	9.14106193848	2.84431157227	-0.811634362793	27.5852941176	0.0051960183838	-0.0214502297383	0.00759418071478	5.1e-06	-8.1e-06	-2.43e-05
1.138	9.2296473999	2.88022459717	-0.806845959473	27.5852941176	0.00812710567723	-0.018785604926	0.0195849923697	4.5e-06	-6.9e-06	-2.31e-05
1.148	9.2176763916	2.88740720215	-0.806845959473	27.6794117647	-0.000666156203051	-0.0185191424448	0.0191852986479	4.8e-06	-8.4e-06	-2.22e-05
1.158	9.15303294678	2.89698400879	-0.854729992676	27.6794117647	0.00199846860915	-0.0186523736854	0.023581929588	5.7e-06	-8.1e-06	-2.31e-05
1.168	9.10993731689	2.86107098389	-0.823605371094	27.6794117647	0.00186523736854	-0.0186523736854	0.0289111792124	3.3e-06	-6.9e-06	-2.31e-05
1.178	9.17458076172	2.7940333374	-0.821211169434	27.7735294118	0.00199846860915	-0.0199846860915	0.0258468606784	6e-06	-6.6e-06	-2.34e-05
1.187	9.16260975342	2.90416661377	-0.91458503418	27.5852941176	-0.00013323124061	-0.0147886677077	0.0241148545505	4.5e-06	-5.7e-06	-2.37e-05
1.198	9.2176763916	2.87304199219	-0.909796630859	27.6794117647	0.0038637059777	-0.0206508422946	0.0165206738357	5.7e-06	-7.5e-06	-2.37e-05
1.208	9.2057053833	2.88261879883	-0.866701000977	27.7735294118	0.00413016845892	-0.0167871363169	0.0145222052265	5.7e-06	-9.3e-06	-2.25e-05
1.218	9.193734375	2.86825358887	-0.837970581055	27.6794117647	0.00692802451173	-0.0215834609789	0.00919295560211	4.8e-06	-6e-06	-2.28e-05
1.227	9.12430252686	2.87783039551	-0.799663354492	27.7735294118	0.00799387443662	-0.0170535987981	0.00639509954929	5.1e-06	-7.5e-06	-2.31e-05
1.238	9.16500395508	2.8299463623	-0.878672009277	27.7735294118	0.00492955590258	-0.0210505360164	0.0110581929707	5.7e-06	-6.9e-06	-2.31e-05
1.248	9.17458076172	2.89219560547	-0.849941589355	27.7735294118	0.00626186830868	-0.0195849923697	0.0146554364671	5.1e-06	-8.1e-06	-2.43e-05
1.258	9.2176763916	2.87783039551	-0.849941589355	27.5852941176	-0.000799387443662	-0.0207840735352	0.021183767257	3e-06	-6.6e-06	-2.46e-05
1.267	9.13627353516	2.84191737061	-0.866701000977	27.6794117647	0.00319754977465	-0.021183767257	0.0242480857911	5.4e-06	-7.2e-06	-2.28e-05
1.277	9.21288798828	2.91134921875	-0.785298144531	27.7735294118	0.00306431853404	-0.0169203675575	0.0298437978967	4.8e-06	-6.6e-06	-2.34e-05
1.288	9.18655177002	2.817975354	-0.833182177734	27.7735294118	0.000666156203051	-0.0215834609789	0.0249142419941	4.5e-06	-8.1e-06	-2.25e-05
1.298	9.16021555176	2.86107098389	-0.713472094727	27.7735294118	0.00279785605282	-0.0170535987981	0.021183767257	3.3e-06	-5.7e-06	-2.19e-05
1.307	9.17218656006	2.87543619385	-0.878672009277	27.7735294118	0.00479632466197	-0.0165206738357	0.0167871363169	4.8e-06	-7.8e-06	-2.28e-05
1.317	9.1817633667	2.91374342041	-0.802057556152	27.7735294118	0.00612863706807	-0.0194517611291	0.0121240428955	4.2e-06	-8.4e-06	-2.4e-05
1.328	9.1697923584	2.80839854736	-0.823605371094	27.7735294118	0.0051960183838	-0.0201179173321	0.0106584992488	5.4e-06	-6e-06	-2.28e-05
1.338	9.2535894165	2.86585938721	-0.787692346191	27.8676470588	0.00279785605282	-0.0219831547007	0.00959264932394	3.9e-06	-7.5e-06	-2.25e-05
1.347	9.2176763916	2.84431157227	-0.804451757813	27.7735294118	0.00599540582746	-0.0190520674073	0.0101255742864	4.8e-06	-7.8e-06	-2.4e-05
1.357	9.14106193848	2.83473476562	-0.802057556152	27.7735294118	0.00586217458685	-0.0219831547007	0.0143889739859	5.1e-06	-6.3e-06	-2.37e-05
1.368	9.17936916504	2.89219560547	-0.948103857422	27.7735294118	0.00359724349648	-0.0175865237606	0.0189188361667	6.6e-06	-7.2e-06	-2.52e-05
1.377	9.20331118164	2.86107098389	-0.864306799316	27.7735294118	0.00186523736854	-0.0189188361667	0.0258468606784	5.4e-06	-7.8e-06	-2.4e-05
1.387	9.22007059326	2.89219560547	-0.861912597656	27.7735294118	0.00173200612793	-0.018119448723	0.0246477795129	4.8e-06	-6e-06	-2.46e-05
1.397	9.14824454346	2.89937821045	-0.749385119629	27.7735294118	0.00359724349648	-0.0210505360164	0.0233154671068	4.5e-06	-6.9e-06	-2.55e-05
1.408	9.2176763916	2.82036955566	-0.869095202637	27.7735294118	0.00679479327112	-0.0197182236103	0.0217166922195	6.3e-06	-6.9e-06	-2.25e-05
1.417	9.24880101318	2.85149417725	-0.842758984375	27.8676470588	0.00346401225587	-0.018119448723	0.0163874425951	4.8e-06	-7.8e-06	-2.4e-05
1.427	9.1817633667	2.85867678223	-0.857124194336	27.8676470588	0.00572894334624	-0.0183859112042	0.00866003063967	5.7e-06	-5.7e-06	-2.31e-05
1.437	9.1817633667	2.87783039551	-0.881066210937	27.7735294118	0.007860643196	-0.0190520674073	0.00919295560211	5.4e-06	-6e-06	-2.28e-05
1.447	9.2057053833	2.86585938721	-0.792480749512	27.7735294118	0.00506278714319	-0.0198514548509	0.0123905053768	3.9e-06	-7.5e-06	-2.37e-05
1.457	9.25598361816	2.85388837891	-0.816422766113	27.8676470588	0.00479632466197	-0.0175865237606	0.0125237366174	3e-06	-7.8e-06	-2.46e-05
1.467	9.18894597168	2.84909997559	-0.778115539551	27.7735294118	0.00186523736854	-0.0189188361667	0.0174532925199	5.7e-06	-6.9e-06	-2.37e-05
1.477	9.21288798828	2.88740720215	-0.873883605957	27.7735294118	0.00226493109037	-0.018119448723	0.0210505360164	4.8e-06	-7.2e-06	-2.4e-05
1.487	9.20809958496	2.92810863037	-0.859518395996	27.7735294118	0.00159877488732	-0.0169203675575	0.0231822358662	6.6e-06	-7.8e-06	-2.34e-05
1.497	9.1697923584	2.87064779053	-0.775721337891	27.7735294118	0.00452986218075	-0.0193185298885	0.0253139357159	5.1e-06	-6.9e-06	-2.19e-05
1.507	9.23683000488	2.86825358887	-0.830787976074	27.8676470588	0.00346401225587	-0.0179862174824	0.0251807044753	5.1e-06	-6.3e-06	-2.43e-05
1.517	9.17218656006	2.83234056396	-0.871489404297	27.7735294118	0.000666156203051	-0.0185191424448	0.0214502297383	4.8e-06	-7.8e-06	-2.34e-05
1.527	9.17936916504	2.81558115234	-0.866701000977	27.7735294118	0.00452986218075	-0.0203843798134	0.0163874425951	5.7e-06	-6.9e-06	-2.37e-05
1.537	9.18894597168	2.93289703369	-0.818816967773	27.8676470588	0.0051960183838	-0.0214502297383	0.0117243491737	3.9e-06	-6.9e-06	-2.31e-05
1.547	9.16260975342	2.8299463623	-0.885854614258	27.8676470588	0.00932618684272	-0.0173200612793	0.0122572741361	3.3e-06	-7.5e-06	-2.55e-05
1.557	9.18655177002	2.86825358887	-0.802057556152	27.8676470588	0.00399693721831	-0.0193185298885	0.0130566615798	7.2e-06	-8.4e-06	-2.34e-05
1.566	9.13866773682	2.85149417725	-0.861912597656	27.8676470588	0.00266462481221	-0.0179862174824	0.0134563553016	4.8e-06	-7.8e-06	-2.34e-05
1.576	9.2176763916	2.81079274902	-0.888248815918	27.7735294118	0.00452986218075	-0.0186523736854	0.012656967858	4.8e-06	-7.2e-06	-2.28e-05
1.587	9.20809958496	2.88022459717	-0.818816967773	27.8676470588	0.00626186830868	-0.0177197550012	0.0185191424448	3.6e-06	-7.2e-06	-2.46e-05
1.597	9.15063874512	2.86585938721	-0.739808312988	27.8676470588	0.00466309342136	-0.0162542113545	0.0223828484225	5.7e-06	-7.5e-06	-2.19e-05
1.606	9.16260975342	2.8299463623	-0.778115539551	27.7735294118	0.00373047473709	-0.0185191424448	0.0245145482723	5.7e-06	-7.5e-06	-2.19e-05
1.616	9.18894597168	2.85867678223	-0.802057556152	27.8676470588	0.00413016845892	-0.0183859112042	0.0202511485728	4.8e-06	-7.8e-06	-2.4e-05
1.627	9.22485899658	2.89219560547	-0.797269152832	27.8676470588	0.00159877488732	-0.0191852986479	0.0194517611291	4.8e-06	-7.2e-06	-2.4e-05
1.637	9.17936916504	2.85149417725	-0.77332713623	27.8676470588	0.00213169984976	-0.0173200612793	0.018119448723	5.1e-06	-8.1e-06	-2.25e-05
1.646	9.16739815674	2.79163913574	-0.905008227539	27.8676470588	0.00413016845892	-0.0202511485728	0.0158545176326	5.1e-06	-7.5e-06	-2.37e-05
1.656	9.1338793335	2.88980140381	-0.821211169434	27.7735294118	0.00319754977465	-0.0203843798134	0.0110581929707	2.7e-06	-6.3e-06	-2.49e-05
1.667	9.22007059326	2.87304199219	-0.876277807617	27.8676470588	0.00666156203051	-0.0183859112042	0.0121240428955	4.8e-06	-7.2e-06	-2.46e-05
1.677	9.13148513184	2.83473476562	-0.830787976074	27.8676470588	0.00373047473709	-0.0207840735352	0.01092496173	5.4e-06	-7.2e-06	-2.16e-05
1.686	9.14345614014	2.87304199219	-0.849941589355	27.9617647059	0.00759418071478	-0.0203843798134	0.0166539050763	4.8e-06	-7.8e-06	-2.34e-05
1.696	9.19134017334	2.85388837891	-0.859518395996	27.8676470588	0.00452986218075	-0.0173200612793	0.0178529862418	5.7e-06	-9.3e-06	-2.31e-05
1.707	9.17218656006	2.89458980713	-0.816422766113	27.8676470588	0.0	-0.0163874425951	0.0225160796631	5.4e-06	-7.8e-06	-2.46e-05
1.716	9.193734375	2.87543619385	-0.804451757813	27.8676470588	-0.000666156203051	-0.0177197550012	0.0206508422946	4.2e-06	-6.6e-06	-2.46e-05
1.726	9.18655177002	2.84431157227	-0.804451757813	27.9617647059	0.00413016845892	-0.0147886677077	0.020517611054	4.8e-06	-7.2e-06	-2.34e-05
1.736	9.23922420654	2.85149417725	-0.787692346191	27.8676470588	0.00452986218075	-0.0186523736854	0.0190520674073	3e-06	-7.2e-06	-2.4e-05
1.746	9.22725319824	2.87064779053	-0.814028564453	27.8676470588	0.00586217458685	-0.0193185298885	0.0163874425951	4.5e-06	-6.9e-06	-2.25e-05
1.756	9.193734375	2.83234056396	-0.842758984375	27.8676470588	0.00373047473709	-0.0173200612793	0.015721286392	6e-06	-6.6e-06	-2.28e-05
1.766	9.2296473999	2.88980140381	-0.825999572754	27.9617647059	0.00546248086502	-0.0179862174824	0.0161209801138	5.4e-06	-7.2e-06	-2.28e-05
1.776	9.2535894165	2.84191737061	-0.833182177734	27.8676470588	0.00879326188028	-0.0173200612793	0.015721286392	5.4e-06	-7.2e-06	-2.22e-05
1.786	9.1817633667	2.88501300049	-0.861912597656	27.9617647059	0.00492955590258	-0.0197182236103	0.0125237366174	3.9e-06	-7.5e-06	-2.19e-05
1.796	9.1697923584	2.84191737061	-0.806845959473	27.8676470588	0.00413016845892	-0.0161209801138	0.0159877488732	5.4e-06	-7.2e-06	-2.22e-05
1.806	9.22246479492	2.88501300049	-0.806845959473	27.8676470588	0.00492955590258	-0.018119448723	0.015721286392	3.6e-06	-6e-06	-2.34e-05
1.816	9.1697923584	2.89698400879	-0.778115539551	27.9617647059	0.00346401225587	-0.0193185298885	0.0209173047758	4.8e-06	-7.2e-06	-2.4e-05
1.826	9.18894597168	2.8299463623	-0.742202514648	27.8676470588	0.00306431853404	-0.0155880551514	0.0213169984976	5.1e-06	-7.5e-06	-2.31e-05
1.836	9.19134017334	2.86585938721	-0.76614453125	27.9617647059	0.000932618684272	-0.0201179173321	0.0209173047758	4.5e-06	-8.1e-06	-2.49e-05
1.846	9.21288798828	2.85149417725	-0.830787976074	27.9617647059	0.0	-0.0159877488732	0.0222496171819	4.2e-06	-7.8e-06	-2.28e-05
1.856	9.11951412354	2.85867678223	-0.785298144531	27.8676470588	0.00559571210563	-0.0182526799636	0.0191852986479	3.9e-06	-6.3e-06	-2.25e-05
1.866	9.27274302979	2.84191737061	-0.809240161133	27.8676470588	0.00452986218075	-0.0173200612793	0.0189188361667	4.8e-06	-7.2e-06	-2.46e-05
1.875	9.19134017334	2.86346518555	-0.787692346191	27.8676470588	0.00626186830868	-0.0201179173321	0.013323124061	3.9e-06	-5.7e-06	-2.25e-05
1.886	9.14345614014	2.85149417725	-0.780509741211	27.9617647059	0.00413016845892	-0.0154548239108	0.0154548239108	5.1e-06	-6.9e-06	-2.19e-05
1.896	9.14345614014	2.90177241211	-0.802057556152	27.9617647059	0.00452986218075	-0.0183859112042	0.0115911179331	5.1e-06	-8.1e-06	-2.25e-05
1.905	9.18655177002	2.85867678223	-0.804451757813	27.9617647059	0.00599540582746	-0.0213169984976	0.0161209801138	4.2e-06	-6.6e-06	-2.16e-05
1.915	9.1697923584	2.83473476562	-0.845153186035	27.9617647059	0.00852679939906	-0.0194517611291	0.0118575804143	5.1e-06	-7.5e-06	-2.19e-05
1.926	9.193734375	2.93050283203	-0.806845959473	27.9617647059	0.00719448699295	-0.0185191424448	0.0193185298885	4.8e-06	-8.4e-06	-2.46e-05
1.936	9.13627353516	2.83952316895	-0.804451757813	27.9617647059	0.000932618684272	-0.0165206738357	0.0197182236103	4.2e-06	-5.4e-06	-2.22e-05
1.945	9.19852277832	2.88740720215	-0.818816967773	27.8676470588	0.00306431853404	-0.0191852986479	0.021183767257	3e-06	-7.2e-06	-2.34e-05
1.955	9.22246479492	2.91853182373	-0.797269152832	27.8676470588	0.00346401225587	-0.0183859112042	0.0237151608286	5.4e-06	-7.2e-06	-2.28e-05
1.966	9.22007059326	2.88980140381	-0.794874951172	27.8676470588	0.00173200612793	-0.015055130189	0.0170535987981	3.9e-06	-6.9e-06	-2.31e-05
1.976	9.22007059326	2.82276375732	-0.852335791016	27.9617647059	0.00186523736854	-0.0203843798134	0.0131898928204	4.2e-06	-6.6e-06	-2.22e-05
1.985	9.15303294678	2.86825358887	-0.806845959473	27.9617647059	0.0065283307899	-0.018119448723	0.0123905053768	6e-06	-6.6e-06	-2.4e-05
1.995	9.1817633667	2.89219560547	-0.857124194336	27.9617647059	0.0118575804143	-0.0170535987981	0.018785604926	5.7e-06	-8.1e-06	-2.31e-05
2.006	9.22007059326	2.85149417725	-0.866701000977	27.9617647059	0.0051960183838	-0.0199846860915	0.0147886677077	4.8e-06	-6.6e-06	-2.4e-05
2.016	9.2057053833	2.817975354	-0.845153186035	27.9617647059	0.000399693721831	-0.018119448723	0.0110581929707	5.7e-06	-6.9e-06	-2.25e-05
2.025	9.20091697998	2.87304199219	-0.818816967773	27.9617647059	0.00639509954929	-0.0202511485728	0.0171868300387	4.8e-06	-7.2e-06	-2.34e-05
2.035	9.17936916504	2.8299463623	-0.847547387695	27.9617647059	0.0051960183838	-0.0198514548509	0.0182526799636	5.1e-06	-8.1e-06	-2.37e-05
2.045	9.22246479492	2.78924493408	-0.849941589355	27.9617647059	0.00492955590258	-0.0158545176326	0.0185191424448	6e-06	-6.6e-06	-2.28e-05
2.056	9.17697496338	2.95923325195	-0.818816967773	27.9617647059	-0.00213169984976	-0.0159877488732	0.0183859112042	3.9e-06	-6.9e-06	-2.43e-05
2.065	9.19852277832	2.86825358887	-0.77093293457	27.9617647059	0.00439663094014	-0.0193185298885	0.0241148545505	3.9e-06	-7.5e-06	-2.49e-05
2.075	9.24880101318	2.79642753906	-0.840364782715	27.9617647059	0.00439663094014	-0.0185191424448	0.025980091919	5.4e-06	-7.8e-06	-2.34e-05
2.085	9.16260975342	2.84431157227	-0.885854614258	28.0558823529	0.0051960183838	-0.0179862174824	0.0214502297383	4.2e-06	-7.8e-06	-2.22e-05
2.095	9.19852277832	2.84670577393	-0.794874951172	27.9617647059	0.00506278714319	-0.0213169984976	0.0155880551514	2.4e-06	-7.8e-06	-2.52e-05
2.105	9.1697923584	2.86346518555	-0.845153186035	27.9617647059	0.00106584992488	-0.0209173047758	0.00799387443662	4.8e-06	-7.8e-06	-2.28e-05
2.115	9.19134017334	2.87064779053	-0.909796630859	28.0558823529	0.00692802451173	-0.0170535987981	0.0107917304894	4.8e-06	-6.6e-06	-2.34e-05
2.125	9.15542714844	2.88501300049	-0.828393774414	28.0558823529	0.00479632466197	-0.020517611054	0.0103920367676	6e-06	-6.6e-06	-2.34e-05
2.135	9.17936916504	2.83952316895	-0.830787976074	27.9617647059	0.00506278714319	-0.0201179173321	0.0117243491737	5.4e-06	-7.2e-06	-2.34e-05
2.145	9.17458076172	2.85388837891	-0.780509741211	28.0558823529	0.00359724349648	-0.0190520674073	0.0149218989483	4.8e-06	-7.2e-06	-2.34e-05
2.155	9.17936916504	2.80121594238	-0.840364782715	28.0558823529	0.00439663094014	-0.0179862174824	0.0165206738357	3.3e-06	-6.9e-06	-2.25e-05
2.165	9.20331118164	2.84431157227	-0.842758984375	27.9617647059	0.00466309342136	-0.0182526799636	0.0238483920692	3.6e-06	-6.6e-06	-2.28e-05
2.174	9.13866773682	2.89219560547	-0.871489404297	28.0558823529	0.00013323124061	-0.018119448723	0.0231822358662	4.8e-06	-7.2e-06	-2.34e-05
2.185	9.23204160156	2.81318695068	-0.888248815918	27.9617647059	0.00013323124061	-0.0193185298885	0.0258468606784	5.7e-06	-7.5e-06	-2.31e-05
2.195	9.2176763916	2.77966812744	-0.873883605957	28.0558823529	0.00359724349648	-0.0193185298885	0.0190520674073	3.9e-06	-8.1e-06	-2.37e-05
2.205	9.2535894165	2.90895501709	-0.861912597656	27.9617647059	0.0113246554519	-0.0166539050763	0.0191852986479	3.9e-06	-5.7e-06	-2.31e-05
2.214	9.17458076172	2.88261879883	-0.790086547852	28.0558823529	-0.00399693721831	-0.0190520674073	0.00479632466197	4.5e-06	-6.9e-06	-2.25e-05
2.225	9.17697496338	2.96162745361	-0.866701000977	27.9617647059	0.00186523736854	-0.0170535987981	0.000932618684272	4.8e-06	-6.6e-06	-2.22e-05
2.235	9.15542714844	2.92571442871	-0.814028564453	28.0558823529	0.0161209801138	-0.0195849923697	0.0137228177829	4.5e-06	-8.1e-06	-2.25e-05
2.245	9.1219083252	2.80839854736	-0.842758984375	27.9617647059	0.0118575804143	-0.0207840735352	0.0222496171819	4.5e-06	-6.9e-06	-2.31e-05
2.254	9.193734375	2.8060043457	-0.799663354492	27.9617647059	-0.00706125575234	-0.0186523736854	0.0170535987981	4.5e-06	-6.3e-06	-2.37e-05
2.265	9.11472572021	2.88261879883	-0.749385119629	28.0558823529	-0.0113246554519	-0.0138560490235	0.0173200612793	6e-06	-7.2e-06	-2.34e-05
2.275	9.1697923584	2.88980140381	-0.746990917969	28.0558823529	0.00932618684272	-0.015721286392	0.0391699847394	4.8e-06	-7.2e-06	-2.28e-05
2.284	9.2057053833	2.79882174072	-0.833182177734	28.0558823529	0.0129234303392	-0.0171868300387	0.0403690659049	5.1e-06	-6.9e-06	-2.43e-05
2.294	9.24640681152	2.76769711914	-0.854729992676	27.9617647059	-0.00439663094014	-0.0191852986479	0.020517611054	4.2e-06	-7.2e-06	-2.34e-05
2.305	9.15303294678	2.82755216064	-0.859518395996	27.9617647059	-0.00186523736854	-0.0215834609789	0.00293108729343	6.6e-06	-7.8e-06	-2.34e-05
2.315	9.18894597168	2.85388837891	-0.825999572754	28.0558823529	0.0161209801138	-0.0217166922195	0.000799387443662	5.4e-06	-7.8e-06	-2.28e-05
2.324	9.22007059326	2.88501300049	-0.881066210937	27.9617647059	0.0203843798134	-0.0174532925199	-0.00319754977465	5.1e-06	-6.3e-06	-2.43e-05
2.334	9.20331118164	2.85867678223	-0.837970581055	28.0558823529	0.00213169984976	-0.0218499234601	0.00146554364671	6e-06	-6.6e-06	-2.4e-05
2.344	9.23443580322	2.85867678223	-0.76135612793	28.0558823529	-0.00479632466197	-0.0170535987981	0.0117243491737	3e-06	-7.8e-06	-2.34e-05
2.355	9.16500395508	2.81079274902	-0.76853873291	27.9617647059	-0.00159877488732	-0.0153215926702	0.0286447167312	5.4e-06	-7.2e-06	-2.28e-05
2.364	9.20809958496	2.88261879883	-0.806845959473	28.0558823529	0.00439663094014	-0.0130566615798	0.0438330781608	5.4e-06	-6e-06	-2.34e-05
2.374	9.23443580322	2.89698400879	-0.727837304687	28.0558823529	-0.000266462481221	-0.0171868300387	0.0421010720328	5.1e-06	-7.5e-06	-2.43e-05
2.384	9.18655177002	2.79882174072	-0.847547387695	28.0558823529	-0.00439663094014	-0.015721286392	0.033174578912	5.4e-06	-5.4e-06	-2.34e-05
2.395	9.13627353516	2.90177241211	-0.799663354492	27.9617647059	0.00119908116549	-0.0189188361667	0.0213169984976	3.9e-06	-6.9e-06	-2.31e-05
2.404	9.15303294678	2.86585938721	-0.797269152832	28.0558823529	0.00892649312089	-0.0202511485728	0.0121240428955	5.1e-06	-8.7e-06	-2.37e-05
2.414	9.19612857666	2.81079274902	-0.816422766113	28.0558823529	0.0125237366174	-0.0202511485728	-0.00532924962441	4.2e-06	-6.6e-06	-2.22e-05
2.424	9.27753143311	2.85628258057	-0.833182177734	28.0558823529	0.00692802451173	-0.0195849923697	-0.00799387443662	5.1e-06	-6.9e-06	-2.55e-05
2.435	9.12669672852	2.84431157227	-0.907402429199	28.0558823529	0.00706125575234	-0.0202511485728	-0.00239816233098	6e-06	-7.2e-06	-2.4e-05
2.444	9.2057053833	2.86825358887	-0.866701000977	28.15	0.00612863706807	-0.0203843798134	0.00892649312089	5.1e-06	-7.5e-06	-2.37e-05
2.454	9.21528218994	2.86107098389	-0.802057556152	28.0558823529	0.00359724349648	-0.0185191424448	0.0234486983474	4.5e-06	-5.7e-06	-2.25e-05
2.464	9.17936916504	2.90177241211	-0.806845959473	27.9617647059	-0.00253139357159	-0.0159877488732	0.0317090352652	5.1e-06	-7.5e-06	-2.43e-05
2.473	9.20091697998	2.87783039551	-0.778115539551	27.9617647059	-0.00413016845892	-0.0145222052265	0.0377044410927	3.3e-06	-8.1e-06	-2.25e-05
2.484	9.25119521484	2.82515795898	-0.775721337891	27.9617647059	-0.00266462481221	-0.0175865237606	0.0406355283861	3e-06	-7.2e-06	-2.4e-05
2.494	9.19852277832	2.91134921875	-0.76853873291	27.9617647059	0.0038637059777	-0.0174532925199	0.0349065850399	3.9e-06	-5.7e-06	-2.31e-05
2.504	9.22246479492	2.79642753906	-0.799663354492	28.0558823529	0.00253139357159	-0.015055130189	0.023581929588	5.4e-06	-8.4e-06	-2.22e-05
2.513	9.28471403809	2.83473476562	-0.878672009277	28.15	0.00466309342136	-0.0233154671068	0.00399693721831	3.3e-06	-6.9e-06	-2.37e-05
2.524	9.18655177002	2.88740720215	-0.847547387695	28.0558823529	0.0090597243615	-0.0207840735352	-0.00439663094014	3.9e-06	-6.9e-06	-2.37e-05
2.534	9.21049378662	2.90416661377	-0.806845959473	28.0558823529	0.0103920367676	-0.0199846860915	-0.00466309342136	5.4e-06	-8.4e-06	-2.28e-05
2.544	9.22246479492	2.92332022705	-0.782903942871	28.15	0.00812710567723	-0.0201179173321	0.00399693721831	6.3e-06	-6.3e-06	-2.43e-05
2.553	9.16021555176	2.84431157227	-0.816422766113	28.0558823529	0.00452986218075	-0.021183767257	0.00799387443662	3.6e-06	-6.6e-06	-2.22e-05
2.564	9.17218656006	2.90416661377	-0.869095202637	28.15	0.00373047473709	-0.0169203675575	0.0227825421444	4.8e-06	-8.4e-06	-2.4e-05
2.574	9.17697496338	2.8060043457	-0.847547387695	28.0558823529	-0.000932618684272	-0.0146554364671	0.0334410413932	4.5e-06	-6.3e-06	-2.25e-05
2.584	9.21528218994	2.82755216064	-0.794874951172	27.9617647059	-0.00186523736854	-0.0155880551514	0.0343736600774	5.1e-06	-6.9e-06	-2.31e-05
2.593	9.16500395508	2.83234056396	-0.854729992676	28.0558823529	-0.00306431853404	-0.015721286392	0.0358392037242	3.3e-06	-6.9e-06	-2.31e-05
2.604	9.10036051025	2.77248552246	-0.830787976074	28.0558823529	0.00373047473709	-0.0178529862418	0.0275788668063	4.2e-06	-8.4e-06	-2.28e-05
2.614	9.17936916504	2.83712896729	-0.864306799316	28.0558823529	0.00399693721831	-0.0209173047758	0.0186523736854	3.6e-06	-8.4e-06	-2.34e-05
2.623	9.23443580322	2.85867678223	-0.782903942871	28.15	0.00253139357159	-0.0189188361667	0.00293108729343	5.1e-06	-7.5e-06	-2.25e-05
2.633	9.193734375	2.84431157227	-0.866701000977	28.0558823529	0.00959264932394	-0.0199846860915	0.00373047473709	4.8e-06	-7.8e-06	-2.34e-05
2.643	9.18894597168	2.77966812744	-0.802057556152	28.0558823529	0.0101255742864	-0.0222496171819	0.00106584992488	2.1e-06	-5.7e-06	-2.31e-05
2.654	9.18894597168	2.85388837891	-0.802057556152	28.15	0.00732771823356	-0.020517611054	0.0013323124061	4.5e-06	-8.1e-06	-2.19e-05
2.663	9.18894597168	2.87064779053	-0.897825622559	28.15	0.00492955590258	-0.0171868300387	0.00839356815845	4.2e-06	-7.8e-06	-2.28e-05
2.673	9.17697496338	2.92092602539	-0.780509741211	28.0558823529	0.00266462481221	-0.0183859112042	0.0222496171819	3.6e-06	-7.2e-06	-2.34e-05
2.683	9.21528218994	2.90416661377	-0.775721337891	28.15	0.00213169984976	-0.0169203675575	0.033174578912	5.1e-06	-6.9e-06	-2.37e-05
2.694	9.19134017334	2.77727392578	-0.852335791016	28.0558823529	0.0013323124061	-0.0175865237606	0.0335742726338	4.5e-06	-6.3e-06	-2.37e-05
2.703	9.21528218994	2.79882174072	-0.785298144531	28.0558823529	-0.00146554364671	-0.0175865237606	0.030776416581	2.4e-06	-7.2e-06	-2.34e-05
2.713	9.193734375	2.7581203125	-0.852335791016	28.15	0.00106584992488	-0.0149218989483	0.023581929588	4.2e-06	-6.6e-06	-2.28e-05
2.723	9.16500395508	2.85388837891	-0.840364782715	28.15	0.00359724349648	-0.0217166922195	0.0198514548509	5.7e-06	-6.9e-06	-2.25e-05
2.734	9.23922420654	2.83234056396	-0.871489404297	28.15	0.0090597243615	-0.0191852986479	0.0142557427453	4.2e-06	-6e-06	-2.28e-05
2.743	9.20331118164	2.85149417725	-0.828393774414	28.15	0.00586217458685	-0.018785604926	0.00239816233098	4.2e-06	-6.6e-06	-2.22e-05
2.753	9.2296473999	2.86107098389	-0.811634362793	28.15	0.00439663094014	-0.0177197550012	0.00799387443662	4.5e-06	-8.7e-06	-2.37e-05
2.763	9.2176763916	2.817975354	-0.823605371094	28.15	0.0118575804143	-0.0198514548509	0.00759418071478	2.7e-06	-6.3e-06	-2.37e-05
2.774	9.2416184082	2.89937821045	-0.806845959473	28.15	0.00732771823356	-0.021183767257	-0.00666156203051	5.1e-06	-6.9e-06	-2.25e-05
2.783	9.14824454346	2.91134921875	-0.756567724609	28.15	-0.0090597243615	-0.0065283307899	-0.00239816233098	4.2e-06	-7.2e-06	-2.28e-05
2.793	9.10514891357	2.87783039551	-0.828393774414	28.0558823529	0.0145222052265	-0.0135895865422	0.0390367534988	5.1e-06	-7.5e-06	-2.31e-05
2.803	9.20809958496	2.88740720215	-0.823605371094	28.15	0.00119908116549	-0.0293108729343	0.0678147014706	4.8e-06	-7.2e-06	-2.34e-05
2.812	9.22485899658	2.78445653076	-0.672770666504	28.15	-0.0251807044753	-0.0174532925199	0.0423675345141	6e-06	-6.6e-06	-2.22e-05
2.823	9.11472572021	2.7940333374	-0.835576379395	28.15	0.0134563553016	-0.0122572741361	0.0474303216573	5.4e-06	-6.6e-06	-2.4e-05
2.833	9.22007059326	2.82276375732	-0.866701000977	28.0558823529	-0.000666156203051	-0.0194517611291	0.0147886677077	4.5e-06	-8.1e-06	-2.13e-05
2.843	9.08360109863	2.7581203125	-0.823605371094	28.15	0.00812710567723	-0.0129234303392	-0.0051960183838	3.9e-06	-8.1e-06	-2.25e-05
2.852	9.14824454346	2.88740720215	-0.797269152832	28.15	0.00852679939906	-0.0293108729343	-0.00239816233098	5.1e-06	-6.9e-06	-2.19e-05
2.863	9.15542714844	2.84431157227	-0.854729992676	28.0558823529	0.00772741195539	-0.0239816233098	-0.0149218989483	6e-06	-8.4e-06	-2.28e-05
2.873	9.1697923584	2.78924493408	-0.888248815918	28.15	0.0210505360164	-0.0203843798134	-0.00759418071478	3.3e-06	-7.5e-06	-2.31e-05
2.883	9.13627353516	2.84670577393	-0.859518395996	28.15	0.0101255742864	-0.0239816233098	-0.0191852986479	4.5e-06	-8.1e-06	-2.31e-05
2.892	9.15303294678	2.95683905029	-0.828393774414	28.15	0.00146554364671	-0.00759418071478	-0.00799387443662	3e-06	-7.8e-06	-2.4e-05
2.903	9.10993731689	2.85867678223	-0.854729992676	28.15	0.00679479327112	-0.00732771823356	0.0444992343638	4.2e-06	-9e-06	-2.4e-05
2.913	9.24401260986	2.82036955566	-0.859518395996	28.15	-0.0111914242113	-0.0178529862418	0.0690137826361	5.7e-06	-6.3e-06	-2.43e-05
2.923	9.2296473999	2.82276375732	-0.77093293457	28.15	-0.0173200612793	-0.0119908116549	0.0768744258321	5.4e-06	-6.6e-06	-2.34e-05
2.932	9.19612857666	2.79642753906	-0.852335791016	28.15	-0.00452986218075	-0.0131898928204	0.0632848392899	4.5e-06	-8.1e-06	-2.31e-05
2.942	9.25598361816	2.7581203125	-0.814028564453	28.0558823529	-0.00106584992488	-0.0146554364671	0.0357059724835	4.5e-06	-6.9e-06	-2.43e-05
2.953	9.2176763916	2.79163913574	-0.708683691406	28.0558823529	0.00119908116549	-0.0215834609789	0.00546248086502	4.2e-06	-7.2e-06	-2.34e-05
2.963	9.15542714844	2.77966812744	-0.76614453125	28.0558823529	0.012656967858	-0.0289111792124	-0.0170535987981	4.5e-06	-5.7e-06	-2.31e-05
2.972	9.14824454346	2.7820623291	-0.821211169434	28.15	0.020517611054	-0.0286447167312	-0.0277120980469	4.8e-06	-6e-06	-2.4e-05
2.982	9.23443580322	2.78685073242	-0.785298144531	28.15	0.0206508422946	-0.0289111792124	-0.0459647780105	6.3e-06	-8.1e-06	-2.31e-05
2.993	9.1219083252	2.91134921875	-0.76375032959	28.15	0.0130566615798	-0.021183767257	-0.0433001531983	6.3e-06	-6.3e-06	-2.37e-05
3.002	9.10036051025	2.97120426025	-0.871489404297	28.15	0.00639509954929	-0.0174532925199	-0.00892649312089	5.1e-06	-7.5e-06	-2.31e-05
3.012	9.16260975342	2.87064779053	-0.823605371094	28.15	0.00572894334624	-0.00999234304577	0.0452986218075	4.5e-06	-6.3e-06	-2.31e-05
3.022	9.22485899658	2.83712896729	-0.857124194336	28.2441176471	-0.00932618684272	-0.00839356815845	0.0735436448169	4.2e-06	-7.2e-06	-2.28e-05
3.033	9.19612857666	2.83473476562	-0.787692346191	28.15	-0.0203843798134	-0.00985911180516	0.083402756622	5.1e-06	-6.3e-06	-2.43e-05
3.042	9.31105025635	2.81558115234	-0.802057556152	28.2441176471	-0.0151883614296	-0.0114578866925	0.085800918953	6e-06	-6e-06	-2.28e-05
3.052	9.21049378662	2.79163913574	-0.871489404297	28.15	-0.00599540582746	-0.0110581929707	0.059820827034	4.8e-06	-7.8e-06	-2.22e-05
3.062	9.2416184082	2.77487972412	-0.76614453125	28.15	-0.0013323124061	-0.0210505360164	0.0257136294378	5.4e-06	-7.2e-06	-2.34e-05
3.073	9.2535894165	2.81318695068	-0.802057556152	28.15	0.00959264932394	-0.0245145482723	-0.0145222052265	3.9e-06	-8.1e-06	-2.43e-05
3.082	9.1578213501	2.82036955566	-0.816422766113	28.15	0.0214502297383	-0.0233154671068	-0.0423675345141	6.3e-06	-6.9e-06	-2.25e-05
3.092	9.15063874512	2.79642753906	-0.818816967773	28.15	0.0265130168814	-0.0281117917688	-0.0594211333122	4.2e-06	-6.6e-06	-2.4e-05
3.102	9.16021555176	2.90416661377	-0.816422766113	28.15	0.0182526799636	-0.0278453292875	-0.0539586524472	5.1e-06	-6.9e-06	-2.31e-05
3.112	9.16739815674	2.91374342041	-0.859518395996	28.2441176471	0.0149218989483	-0.0189188361667	-0.0153215926702	5.4e-06	-5.4e-06	-2.4e-05
3.122	9.1458503418	2.88980140381	-0.809240161133	28.15	0.00546248086502	-0.0118575804143	0.0293108729343	2.7e-06	-5.7e-06	-2.31e-05
3.132	9.13866773682	2.85867678223	-0.854729992676	28.15	-0.0123905053768	-0.0101255742864	0.0672817765082	3.9e-06	-6.9e-06	-2.37e-05
3.142	9.14345614014	2.89458980713	-0.845153186035	28.2441176471	-0.0174532925199	-0.00892649312089	0.0872664625997	4.8e-06	-6.6e-06	-2.28e-05
3.152	9.19852277832	2.82755216064	-0.77332713623	28.15	-0.0139892802641	-0.00692802451173	0.09605972448	3.9e-06	-7.5e-06	-2.37e-05
3.162	9.2535894165	2.74854350586	-0.76375032959	28.2441176471	-0.00892649312089	-0.0146554364671	0.0784732007194	3.9e-06	-5.7e-06	-2.25e-05
3.172	9.17697496338	2.73178409424	-0.711077893066	28.15	-0.00506278714319	-0.021183767257	0.0353062787617	4.2e-06	-6.6e-06	-2.34e-05
3.182	9.21528218994	2.78924493408	-0.77332713623	28.0558823529	0.0125237366174	-0.0237151608286	-0.00945941808333	4.2e-06	-5.4e-06	-2.34e-05
3.191	9.22485899658	2.78924493408	-0.845153186035	28.15	0.0251807044753	-0.029044410453	-0.0478300153791	4.5e-06	-6.3e-06	-2.43e-05
3.202	9.1458503418	2.83712896729	-0.852335791016	28.2441176471	0.0279785605282	-0.0297105666561	-0.0615528331619	5.4e-06	-7.8e-06	-2.28e-05
3.212	9.1578213501	2.88980140381	-0.821211169434	28.15	0.0230490046256	-0.0291776416936	-0.0551577336126	3.9e-06	-6.9e-06	-2.31e-05
3.222	9.17936916504	2.93289703369	-0.840364782715	28.2441176471	0.0159877488732	-0.0222496171819	-0.0217166922195	5.7e-06	-6.9e-06	-2.43e-05
3.231	9.14824454346	2.88501300049	-0.77332713623	28.15	0.000799387443662	-0.0165206738357	0.0190520674073	4.5e-06	-7.5e-06	-2.25e-05
3.241	9.21049378662	2.86585938721	-0.866701000977	28.15	-0.00866003063967	-0.0103920367676	0.0547580398908	5.4e-06	-7.2e-06	-2.28e-05
3.252	9.23683000488	2.84670577393	-0.816422766113	28.15	-0.0158545176326	-0.00746094947417	0.0847350690281	4.8e-06	-6.6e-06	-2.28e-05
3.262	9.18894597168	2.79882174072	-0.739808312988	28.15	-0.0170535987981	-0.00945941808333	0.0971255744049	5.7e-06	-6.9e-06	-2.37e-05
3.271	9.28950244141	2.72699569092	-0.77332713623	28.2441176471	-0.0138560490235	-0.015055130189	0.0780735069976	3.3e-06	-7.5e-06	-2.37e-05
3.281	9.2535894165	2.82755216064	-0.756567724609	28.2441176471	-0.00466309342136	-0.0178529862418	0.041035222108	4.5e-06	-8.7e-06	-2.37e-05
3.292	9.26077202148	2.77487972412	-0.91219083252	28.15	0.0107917304894	-0.0213169984976	-0.00199846860915	3.6e-06	-6.6e-06	-2.4e-05
3.302	9.22007059326	2.83712896729	-0.883460412598	28.2441176471	0.0202511485728	-0.0250474732347	-0.036905053649	4.2e-06	-7.8e-06	-2.34e-05
3.311	9.16021555176	2.88261879883	-0.849941589355	28.2441176471	0.0219831547007	-0.0303767228591	-0.0555574273345	4.2e-06	-9e-06	-2.28e-05
3.321	9.12669672852	2.87783039551	-0.885854614258	28.2441176471	0.0179862174824	-0.029044410453	-0.0498284839882	5.1e-06	-7.5e-06	-2.49e-05
3.332	9.22007059326	2.90416661377	-0.885854614258	28.2441176471	0.0159877488732	-0.0226493109037	-0.0287779479718	4.2e-06	-6.6e-06	-2.28e-05
3.342	9.2176763916	2.94726224365	-0.883460412598	28.15	0.00839356815845	-0.0163874425951	0.00826033691784	3.6e-06	-7.2e-06	-2.34e-05
3.351	9.17936916504	2.88980140381	-0.823605371094	28.2441176471	-0.00599540582746	-0.010258805527	0.048895865304	4.2e-06	-7.8e-06	-2.28e-05
3.361	9.2176763916	2.86825358887	-0.864306799316	28.15	-0.013323124061	-0.0130566615798	0.0796722818849	3.9e-06	-6.9e-06	-2.25e-05
3.372	9.16260975342	2.75333190918	-0.787692346191	28.2441176471	-0.0179862174824	-0.0105252680082	0.0897978561713	5.1e-06	-6.9e-06	-2.55e-05
3.381	9.23922420654	2.79642753906	-0.794874951172	28.2441176471	-0.0122572741361	-0.0123905053768	0.0776738132758	5.1e-06	-6.9e-06	-2.25e-05
3.391	9.22007059326	2.71981308594	-0.794874951172	28.15	-0.0038637059777	-0.0174532925199	0.041701378311	5.4e-06	-9e-06	-2.28e-05
3.401	9.23443580322	2.80839854736	-0.830787976074	28.2441176471	0.0065283307899	-0.0223828484225	0.00159877488732	4.8e-06	-6.6e-06	-2.28e-05
3.411	9.22007059326	2.77966812744	-0.890643017578	28.3382352941	0.0162542113545	-0.0263797856408	-0.0263797856408	5.1e-06	-7.5e-06	-2.37e-05
3.421	9.19612857666	2.84431157227	-0.828393774414	28.2441176471	0.0182526799636	-0.0287779479718	-0.0444992343638	5.1e-06	-6.3e-06	-2.31e-05
3.431	9.14824454346	2.89458980713	-0.852335791016	28.15	0.0223828484225	-0.0249142419941	-0.0405022971455	3.6e-06	-6.6e-06	-2.28e-05
3.441	9.15542714844	2.88501300049	-0.869095202637	28.2441176471	0.0138560490235	-0.0207840735352	-0.0243813170317	3.6e-06	-7.8e-06	-2.28e-05
3.451	9.16739815674	2.92571442871	-0.878672009277	28.2441176471	0.00586217458685	-0.0183859112042	0.00506278714319	4.2e-06	-7.2e-06	-2.34e-05
3.461	9.15063874512	2.88261879883	-0.876277807617	28.15	-0.00239816233098	-0.0146554364671	0.0387702910176	3e-06	-7.8e-06	-2.22e-05
3.471	9.1697923584	2.85388837891	-0.847547387695	28.3382352941	-0.00839356815845	-0.0106584992488	0.0640842267335	3.9e-06	-6.3e-06	-2.19e-05
3.481	9.16739815674	2.76769711914	-0.854729992676	28.2441176471	-0.0111914242113	-0.0110581929707	0.0754088821854	4.2e-06	-6.6e-06	-2.34e-05
3.491	9.24640681152	2.7461493042	-0.687135876465	28.2441176471	-0.00945941808333	-0.0151883614296	0.06768147023	5.4e-06	-7.8e-06	-2.16e-05
3.501	9.2296473999	2.71263048096	-0.782903942871	28.15	-0.010258805527	-0.0137228177829	0.0443660031232	4.2e-06	-5.4e-06	-2.28e-05
3.511	9.2057053833	2.71502468262	-0.744596716309	28.2441176471	0.00626186830868	-0.0193185298885	0.0139892802641	5.4e-06	-5.4e-06	-2.4e-05
3.521	9.23204160156	2.72938989258	-0.869095202637	28.2441176471	0.0159877488732	-0.0251807044753	-0.0118575804143	3.3e-06	-8.1e-06	-2.31e-05
3.53	9.2057053833	2.76769711914	-0.77093293457	28.15	0.0134563553016	-0.0262465544002	-0.0311761103028	5.1e-06	-6.3e-06	-2.25e-05
3.54	9.16260975342	2.85149417725	-0.756567724609	28.15	0.0161209801138	-0.0285114854906	-0.033174578912	5.1e-06	-7.5e-06	-2.25e-05
3.551	9.21049378662	2.91134921875	-0.928950244141	28.15	0.0118575804143	-0.021183767257	-0.0203843798134	3.6e-06	-7.2e-06	-2.34e-05
3.561	9.1817633667	2.87543619385	-0.833182177734	28.2441176471	0.0115911179331	-0.0179862174824	0.00306431853404	5.7e-06	-6.9e-06	-2.19e-05
3.57	9.23204160156	2.84909997559	-0.837970581055	28.2441176471	0.00279785605282	-0.015055130189	0.0209173047758	4.2e-06	-7.8e-06	-2.4e-05
3.58	9.2296473999	2.83712896729	-0.842758984375	28.15	-0.00559571210563	-0.0115911179331	0.0462312404918	3.3e-06	-7.5e-06	-2.37e-05
3.591	9.23922420654	2.87304199219	-0.876277807617	28.2441176471	-0.00266462481221	-0.0115911179331	0.0607534457183	5.7e-06	-6.9e-06	-2.25e-05
3.601	9.21288798828	2.85867678223	-0.869095202637	28.2441176471	-0.00839356815845	-0.015721286392	0.0566232772594	5.1e-06	-8.1e-06	-2.31e-05
3.61	9.1578213501	2.77727392578	-0.785298144531	28.15	-0.00586217458685	-0.0139892802641	0.0496952527476	4.5e-06	-6.9e-06	-2.31e-05
3.62	9.2655604248	2.74136090088	-0.828393774414	28.2441176471	0.000266462481221	-0.0210505360164	0.029044410453	5.4e-06	-7.8e-06	-2.34e-05
3.631	9.20809958496	2.77487972412	-0.756567724609	28.2441176471	0.00626186830868	-0.0223828484225	0.00812710567723	3.6e-06	-7.8e-06	-2.4e-05
3.641	9.25837781982	2.79642753906	-0.76135612793	28.3382352941	0.007860643196	-0.0242480857911	-0.00932618684272	5.4e-06	-6.6e-06	-2.34e-05
3.65	9.2057053833	2.81318695068	-0.797269152832	28.3382352941	0.0135895865422	-0.0257136294378	-0.0197182236103	4.8e-06	-9e-06	-2.28e-05
3.66	9.19134017334	2.85628258057	-0.890643017578	28.2441176471	0.0170535987981	-0.0214502297383	-0.0179862174824	4.5e-06	-6.9e-06	-2.25e-05
3.671	9.20331118164	2.82036955566	-0.893037219238	28.2441176471	0.0142557427453	-0.0219831547007	-0.0130566615798	5.7e-06	-6.9e-06	-2.31e-05
3.681	9.19612857666	2.86585938721	-0.818816967773	28.2441176471	0.00692802451173	-0.0167871363169	0.00373047473709	3.6e-06	-6.6e-06	-2.52e-05
3.69	9.18655177002	2.817975354	-0.859518395996	28.2441176471	0.000666156203051	-0.0147886677077	0.0241148545505	3.6e-06	-7.2e-06	-2.28e-05
3.7	9.20809958496	2.81558115234	-0.806845959473	28.2441176471	0.00106584992488	-0.0141225115047	0.0448989280857	3.9e-06	-8.7e-06	-2.31e-05
3.71	9.17936916504	2.87304199219	-0.76853873291	28.2441176471	-0.00559571210563	-0.0161209801138	0.0582220521467	5.4e-06	-7.8e-06	-2.4e-05
3.72	9.193734375	2.76530291748	-0.897825622559	28.15	-0.00612863706807	-0.0143889739859	0.0580888209061	6e-06	-7.2e-06	-2.4e-05
3.73	9.23922420654	2.76769711914	-0.787692346191	28.4323529412	-0.00373047473709	-0.0171868300387	0.0478300153791	4.5e-06	-6.9e-06	-2.37e-05
3.74	9.23443580322	2.75093770752	-0.797269152832	28.2441176471	0.00333078101526	-0.018785604926	0.0242480857911	5.4e-06	-7.8e-06	-2.34e-05
3.75	9.10993731689	2.80839854736	-0.75896192627	28.2441176471	0.0065283307899	-0.0234486983474	0.0013323124061	3.6e-06	-7.2e-06	-2.22e-05
3.76	9.16260975342	2.84909997559	-0.794874951172	28.2441176471	0.0122572741361	-0.0242480857911	-0.0182526799636	5.1e-06	-7.5e-06	-2.31e-05
3.77	9.16260975342	2.80121594238	-0.845153186035	28.2441176471	0.0165206738357	-0.0245145482723	-0.0222496171819	4.5e-06	-7.5e-06	-2.25e-05
3.78	9.13627353516	2.8299463623	-0.830787976074	28.3382352941	0.0158545176326	-0.0239816233098	-0.0218499234601	5.1e-06	-6.9e-06	-2.31e-05
3.79	9.12669672852	2.86825358887	-0.871489404297	28.3382352941	0.00772741195539	-0.0223828484225	-0.00599540582746	5.1e-06	-6.9e-06	-2.13e-05
3.8	9.17218656006	2.87304199219	-0.888248815918	28.2441176471	0.00253139357159	-0.015721286392	0.0147886677077	4.2e-06	-8.4e-06	-2.34e-05
3.81	9.22007059326	2.89937821045	-0.806845959473	28.2441176471	-0.000932618684272	-0.0134563553016	0.0379709035739	5.1e-06	-6.3e-06	-2.49e-05
3.82	9.2176763916	2.81079274902	-0.857124194336	28.3382352941	-0.00319754977465	-0.0121240428955	0.0554241960939	5.1e-06	-6.9e-06	-2.37e-05
3.83	9.2296473999	2.74136090088	-0.751779321289	28.2441176471	-0.00772741195539	-0.0141225115047	0.0592879020716	4.8e-06	-6e-06	-2.22e-05
3.84	9.21288798828	2.80121594238	-0.948103857422	28.3382352941	-0.00812710567723	-0.0155880551514	0.0511607963943	4.2e-06	-7.2e-06	-2.46e-05
3.85	9.29429084473	2.8060043457	-0.902614025879	28.2441176471	-0.00159877488732	-0.0174532925199	0.0322419602277	4.8e-06	-7.8e-06	-2.22e-05
3.86	9.19612857666	2.79642753906	-0.739808312988	28.2441176471	0.00839356815845	-0.0215834609789	0.00626186830868	4.8e-06	-6e-06	-2.28e-05
3.87	9.193734375	2.77248552246	-0.821211169434	28.2441176471	0.0137228177829	-0.0250474732347	-0.0179862174824	4.5e-06	-7.5e-06	-2.37e-05
3.879	9.13148513184	2.83234056396	-0.881066210937	28.2441176471	0.0149218989483	-0.0247810107535	-0.0313093415434	4.5e-06	-8.1e-06	-2.31e-05
3.89	9.14106193848	2.87304199219	-0.833182177734	28.2441176471	0.013323124061	-0.0226493109037	-0.0361056662054	4.8e-06	-7.8e-06	-2.28e-05
3.9	9.18655177002	2.90416661377	-0.893037219238	28.3382352941	0.00985911180516	-0.0147886677077	-0.00759418071478	5.4e-06	-6.6e-06	-2.28e-05
3.909	9.11472572021	2.90177241211	-0.787692346191	28.3382352941	0.00746094947417	-0.0122572741361	0.0398361409425	5.7e-06	-8.1e-06	-2.13e-05
3.919	9.21528218994	2.817975354	-0.701501086426	28.2441176471	-0.00892649312089	-0.0183859112042	0.0791393569225	5.7e-06	-8.1e-06	-2.31e-05
3.93	9.20091697998	2.82515795898	-0.701501086426	28.3382352941	-0.0263797856408	-0.0189188361667	0.0764747321103	4.8e-06	-9e-06	-2.34e-05
3.94	9.20091697998	2.81318695068	-0.76614453125	28.2441176471	-0.00492955590258	-0.00999234304577	0.0692802451173	4.8e-06	-7.8e-06	-2.28e-05
3.949	9.21528218994	2.72699569092	-0.806845959473	28.2441176471	0.0038637059777	-0.0143889739859	0.0422343032735	4.8e-06	-7.2e-06	-2.34e-05
3.959	9.24640681152	2.7940333374	-0.818816967773	28.2441176471	0.00266462481221	-0.0194517611291	-0.00159877488732	4.8e-06	-7.2e-06	-2.34e-05
3.97	9.1817633667	2.80361014404	-0.809240161133	28.2441176471	0.0123905053768	-0.0309096478216	-0.0215834609789	6.6e-06	-6e-06	-2.34e-05
3.98	9.15542714844	2.82515795898	-0.744596716309	28.3382352941	0.0247810107535	-0.0289111792124	-0.0391699847394	4.5e-06	-6.9e-06	-2.31e-05
3.989	9.16500395508	2.76530291748	-0.754173522949	28.2441176471	0.0274456355657	-0.0265130168814	-0.0423675345141	3.3e-06	-6.3e-06	-2.31e-05
3.999	9.19134017334	2.88980140381	-0.830787976074	28.2441176471	0.0115911179331	-0.0230490046256	-0.0390367534988	4.8e-06	-7.2e-06	-2.4e-05
4.009	9.1697923584	2.93050283203	-0.861912597656	28.3382352941	0.000932618684272	-0.0115911179331	-0.00333078101526	5.1e-06	-7.5e-06	-2.43e-05
4.02	9.12430252686	2.89458980713	-0.847547387695	28.2441176471	0.00159877488732	-0.0113246554519	0.0584885146279	5.4e-06	-6.6e-06	-2.22e-05
4.029	9.12669672852	2.8299463623	-0.742202514648	28.2441176471	-0.0169203675575	-0.0125237366174	0.0909969373368	4.8e-06	-6.6e-06	-2.52e-05
4.039	9.21288798828	2.7820623291	-0.756567724609	28.2441176471	-0.0227825421444	-0.0110581929707	0.0928621747053	5.7e-06	-8.1e-06	-2.37e-05
4.049	9.27274302979	2.73657249756	-0.76135612793	28.3382352941	-0.00919295560211	-0.010258805527	0.0715451762077	5.4e-06	-7.8e-06	-2.4e-05
4.06	9.26795462646	2.75333190918	-0.840364782715	28.2441176471	0.00213169984976	-0.0154548239108	0.0334410413932	5.4e-06	-6.6e-06	-2.28e-05
4.069	9.22007059326	2.77966812744	-0.833182177734	28.4323529412	0.00692802451173	-0.0175865237606	-0.00333078101526	2.4e-06	-7.8e-06	-2.28e-05
4.079	9.2296473999	2.77248552246	-0.837970581055	28.3382352941	0.0130566615798	-0.0279785605282	-0.0337075038744	3.9e-06	-6.9e-06	-2.49e-05
4.089	9.22007059326	2.7700913208	-0.828393774414	28.3382352941	0.0245145482723	-0.0286447167312	-0.0401026034237	3.9e-06	-6.9e-06	-2.31e-05
4.099	9.16739815674	2.80361014404	-0.785298144531	28.3382352941	0.0227825421444	-0.0249142419941	-0.0487626340634	5.1e-06	-7.5e-06	-2.49e-05
4.109	9.17218656006	2.93289703369	-0.828393774414	28.2441176471	0.0115911179331	-0.0197182236103	-0.0306431853404	4.2e-06	-8.4e-06	-2.28e-05
4.119	9.15542714844	2.84670577393	-0.905008227539	28.2441176471	0.00199846860915	-0.0166539050763	0.00999234304577	5.4e-06	-6.6e-06	-2.46e-05
4.129	9.16739815674	2.86107098389	-0.775721337891	28.3382352941	-0.00319754977465	-0.00919295560211	0.0624854518462	4.8e-06	-6e-06	-2.34e-05
4.139	9.17697496338	2.82276375732	-0.866701000977	28.2441176471	-0.0122572741361	-0.0119908116549	0.085800918953	4.2e-06	-9e-06	-2.34e-05
4.149	9.20091697998	2.73178409424	-0.797269152832	28.2441176471	-0.0209173047758	-0.010258805527	0.0823369066971	5.1e-06	-8.7e-06	-2.31e-05
4.159	9.2535894165	2.72699569092	-0.780509741211	28.15	-0.012656967858	-0.0113246554519	0.0644839204554	5.7e-06	-6.9e-06	-2.31e-05
4.169	9.22246479492	2.78685073242	-0.701501086426	28.3382352941	0.00359724349648	-0.0167871363169	0.0251807044753	5.1e-06	-6.3e-06	-2.37e-05
4.178	9.22246479492	2.68868846436	-0.814028564453	28.3382352941	0.0103920367676	-0.0253139357159	-0.00612863706807	3e-06	-6.6e-06	-2.34e-05
4.189	9.23922420654	2.81318695068	-0.804451757813	28.2441176471	0.0161209801138	-0.029044410453	-0.0335742726338	3.6e-06	-7.2e-06	-2.28e-05
4.199	9.17218656006	2.7940333374	-0.890643017578	28.3382352941	0.0241148545505	-0.0261133231596	-0.0425007657547	3.3e-06	-7.5e-06	-2.43e-05
4.209	9.19134017334	2.88022459717	-0.902614025879	28.2441176471	0.0223828484225	-0.0253139357159	-0.0433001531983	6e-06	-6.6e-06	-2.28e-05
4.218	9.15303294678	2.94247384033	-0.864306799316	28.4323529412	0.0103920367676	-0.0207840735352	-0.0173200612793	4.8e-06	-7.8e-06	-2.28e-05
4.229	9.10275471191	2.90656081543	-0.794874951172	28.2441176471	0.00359724349648	-0.0135895865422	0.0169203675575	4.5e-06	-6.9e-06	-2.43e-05
4.239	9.14824454346	2.90177241211	-0.830787976074	28.2441176471	-0.00226493109037	-0.0127901990986	0.059154670831	6.3e-06	-7.5e-06	-2.31e-05
4.249	9.24640681152	2.83712896729	-0.746990917969	28.2441176471	-0.0149218989483	-0.0125237366174	0.0812710567723	5.4e-06	-6.6e-06	-2.34e-05
4.258	9.19134017334	2.80361014404	-0.821211169434	28.3382352941	-0.0185191424448	-0.0114578866925	0.0774073507946	1.5e-06	-6.9e-06	-2.19e-05
4.269	9.25119521484	2.7341782959	-0.814028564453	28.3382352941	-0.00413016845892	-0.0123905053768	0.0624854518462	4.5e-06	-8.1e-06	-2.31e-05
4.279	9.29189664307	2.76290871582	-0.821211169434	28.2441176471	0.0038637059777	-0.0193185298885	0.0323751914683	6e-06	-7.2e-06	-2.46e-05
4.288	9.20331118164	2.7820623291	-0.756567724609	28.3382352941	0.00932618684272	-0.0190520674073	-0.00612863706807	5.1e-06	-8.7e-06	-2.31e-05
4.298	9.2416184082	2.78685073242	-0.861912597656	28.3382352941	0.0147886677077	-0.0287779479718	-0.0373047473709	6.6e-06	-7.8e-06	-2.22e-05
4.308	9.1578213501	2.85628258057	-0.818816967773	28.3382352941	0.0246477795129	-0.0245145482723	-0.0458315467699	5.7e-06	-6.3e-06	-2.25e-05
4.319	9.13148513184	2.85388837891	-0.866701000977	28.3382352941	0.0195849923697	-0.0230490046256	-0.0399693721831	3.3e-06	-7.5e-06	-2.37e-05
4.328	9.1817633667	2.94247384033	-0.859518395996	28.3382352941	0.00826033691784	-0.0238483920692	-0.0123905053768	5.4e-06	-6.6e-06	-2.28e-05
4.338	9.14824454346	2.90416661377	-0.823605371094	28.3382352941	0.00452986218075	-0.0142557427453	0.0319754977465	4.2e-06	-7.8e-06	-2.34e-05
4.348	9.16260975342	2.86107098389	-0.871489404297	28.2441176471	-0.00839356815845	-0.0122572741361	0.0603537519964	3.6e-06	-7.2e-06	-2.4e-05
4.359	9.27034882812	2.78924493408	-0.806845959473	28.2441176471	-0.0121240428955	-0.0114578866925	0.0871332313591	5.4e-06	-6e-06	-2.22e-05
4.368	9.22725319824	2.78445653076	-0.823605371094	28.3382352941	-0.0174532925199	-0.0114578866925	0.0896646249307	4.8e-06	-9e-06	-2.22e-05
4.378	9.27513723145	2.74136090088	-0.837970581055	28.3382352941	-0.00799387443662	-0.015721286392	0.0734104135763	4.5e-06	-6.9e-06	-2.37e-05
4.388	9.30147344971	2.7222072876	-0.735019909668	28.3382352941	0.00439663094014	-0.0234486983474	0.0273124043251	5.7e-06	-8.7e-06	-2.31e-05
4.399	9.27513723145	2.76051451416	-0.821211169434	28.3382352941	0.0173200612793	-0.0293108729343	-0.0357059724835	4.2e-06	-7.2e-06	-2.46e-05
4.408	9.1578213501	2.78685073242	-0.833182177734	28.2441176471	0.0282450230094	-0.0329081164307	-0.0832695253814	4.5e-06	-8.1e-06	-2.49e-05
4.418	9.13866773682	2.89937821045	-0.91458503418	28.3382352941	0.0361056662054	-0.030776416581	-0.0913966310586	4.8e-06	-7.8e-06	-2.4e-05
4.428	9.17936916504	2.91853182373	-0.92655604248	28.3382352941	0.031442572784	-0.0255803981972	-0.0728774886138	6.3e-06	-6.9e-06	-2.31e-05
4.438	9.10275471191	2.88980140381	-0.797269152832	28.3382352941	0.0146554364671	-0.0194517611291	-0.0199846860915	4.5e-06	-6.9e-06	-2.37e-05
4.448	9.1458503418	2.88261879883	-0.797269152832	28.3382352941	-0.00746094947417	-0.0065283307899	0.0554241960939	5.1e-06	-6.9e-06	-2.25e-05
4.458	9.15542714844	2.86825358887	-0.76135612793	28.3382352941	-0.0219831547007	-0.00119908116549	0.110715160947	4.2e-06	-7.2e-06	-2.28e-05
4.468	9.19852277832	2.77966812744	-0.75896192627	28.3382352941	-0.0321087289871	0.0	0.152549770499	4.8e-06	-6.6e-06	-2.4e-05
4.477	9.18894597168	2.69587106934	-0.778115539551	28.3382352941	-0.0262465544002	-0.0038637059777	0.140292496363	3.9e-06	-7.5e-06	-2.31e-05
4.488	9.28710823975	2.72699569092	-0.699106884766	28.3382352941	-0.0194517611291	-0.0182526799636	0.0928621747053	5.1e-06	-8.1e-06	-2.31e-05
4.498	9.25598361816	2.69108266602	-0.76375032959	28.3382352941	0.00546248086502	-0.0233154671068	0.0154548239108	3.9e-06	-6.3e-06	-2.37e-05
4.508	9.22485899658	2.75333190918	-0.806845959473	28.3382352941	0.0250474732347	-0.0319754977465	-0.064617151696	4.8e-06	-6.6e-06	-2.34e-05
4.517	9.17458076172	2.7700913208	-0.931344445801	28.3382352941	0.044099540642	-0.0365053599272	-0.111914242113	5.7e-06	-7.5e-06	-2.37e-05
4.528	9.15063874512	2.82036955566	-0.938527050781	28.3382352941	0.0459647780105	-0.0378376723333	-0.123105666324	5.4e-06	-6e-06	-2.34e-05
4.538	9.07881269531	2.97120426025	-0.888248815918	28.4323529412	0.0318422665059	-0.0278453292875	-0.0884655437652	4.8e-06	-7.8e-06	-2.34e-05
4.548	9.13866773682	3.0166940918	-0.854729992676	28.2441176471	0.0142557427453	-0.0170535987981	-0.0182526799636	4.2e-06	-7.2e-06	-2.16e-05
4.557	9.10993731689	2.91374342041	-0.76853873291	28.2441176471	-0.00639509954929	-0.0114578866925	0.0634180705305	4.8e-06	-8.4e-06	-2.34e-05
4.568	9.1817633667	2.82036955566	-0.780509741211	28.3382352941	-0.0261133231596	-0.00119908116549	0.130433384557	4.2e-06	-6e-06	-2.28e-05
4.578	9.24640681152	2.77487972412	-0.77332713623	28.4323529412	-0.0365053599272	0.000399693721831	0.160410413695	4.8e-06	-8.4e-06	-2.4e-05
4.588	9.22485899658	2.74136090088	-0.797269152832	28.4323529412	-0.0311761103028	-0.00932618684272	0.144289433581	4.8e-06	-7.2e-06	-2.28e-05
4.597	9.32541546631	2.71502468262	-0.809240161133	28.3382352941	-0.0117243491737	-0.0143889739859	0.0870000001185	3.3e-06	-6.3e-06	-2.19e-05
4.608	9.26077202148	2.63841022949	-0.77093293457	28.2441176471	0.00839356815845	-0.025980091919	0.00839356815845	6e-06	-7.2e-06	-2.34e-05
4.618	9.26316622314	2.70784207764	-0.806845959473	28.3382352941	0.0246477795129	-0.0361056662054	-0.0651500766584	4.5e-06	-6.3e-06	-2.43e-05
4.627	9.19134017334	2.8299463623	-0.861912597656	28.3382352941	0.041035222108	-0.0366385911678	-0.110715160947	4.8e-06	-6.6e-06	-2.34e-05
4.637	9.17697496338	2.88261879883	-0.878672009277	28.2441176471	0.0421010720328	-0.0322419602277	-0.118709035384	3.9e-06	-6.3e-06	-2.43e-05
4.647	9.14345614014	2.97120426025	-0.91219083252	28.2441176471	0.0305099540997	-0.0266462481221	-0.0795390506443	5.1e-06	-6.9e-06	-2.19e-05
4.658	9.12909093018	2.95683905029	-0.883460412598	28.3382352941	0.0138560490235	-0.0174532925199	-0.0125237366174	4.8e-06	-6e-06	-2.34e-05
4.667	9.08360109863	2.91613762207	-0.857124194336	28.3382352941	-0.00572894334624	-0.00799387443662	0.0640842267335	3.9e-06	-6.3e-06	-2.37e-05
4.677	9.17218656006	2.85867678223	-0.821211169434	28.3382352941	-0.0233154671068	0.0	0.127901990986	4.8e-06	-6.6e-06	-2.4e-05
4.687	9.1817633667	2.77727392578	-0.821211169434	28.3382352941	-0.0321087289871	-0.00186523736854	0.147620214596	4.8e-06	-7.2e-06	-2.4e-05
4.698	9.1817633667	2.65516964111	-0.775721337891	28.4323529412	-0.0274456355657	-0.00706125575234	0.131232772001	3e-06	-6.6e-06	-2.4e-05
4.707	9.27992563477	2.64559283447	-0.782903942871	28.3382352941	-0.012656967858	-0.0143889739859	0.0770076570727	4.5e-06	-7.5e-06	-2.49e-05
4.717	9.2535894165	2.66235224609	-0.797269152832	28.2441176471	0.007860643196	-0.0250474732347	0.0117243491737	3.9e-06	-6.9e-06	-2.43e-05
4.727	9.22725319824	2.698265271	-0.854729992676	28.3382352941	0.0231822358662	-0.0325084227089	-0.0576891271842	3.6e-06	-6e-06	-2.46e-05
4.738	9.16500395508	2.76530291748	-0.837970581055	28.3382352941	0.0341071975962	-0.0349065850399	-0.0971255744049	4.5e-06	-6.9e-06	-2.49e-05
4.747	9.23922420654	2.88740720215	-0.900219824219	28.3382352941	0.0358392037242	-0.033174578912	-0.102055130307	4.2e-06	-7.8e-06	-2.4e-05
4.757	9.1219083252	2.93050283203	-0.840364782715	28.3382352941	0.0285114854906	-0.0281117917688	-0.073143951095	5.7e-06	-7.5e-06	-2.25e-05
4.767	9.1697923584	2.94486804199	-0.828393774414	28.3382352941	0.013323124061	-0.0167871363169	-0.0117243491737	4.2e-06	-5.4e-06	-2.28e-05
4.777	9.16260975342	2.93289703369	-0.885854614258	28.3382352941	-0.0038637059777	-0.00919295560211	0.0516937213568	5.4e-06	-7.8e-06	-2.28e-05
4.787	9.2416184082	2.85149417725	-0.787692346191	28.4323529412	-0.021183767257	-0.00346401225587	0.102321592789	3.9e-06	-6.3e-06	-2.37e-05
4.797	9.11951412354	2.84909997559	-0.825999572754	28.4323529412	-0.0306431853404	-0.0038637059777	0.126169984858	6e-06	-6e-06	-2.46e-05
4.807	9.19612857666	2.71502468262	-0.725443103027	28.4323529412	-0.0225160796631	-0.00706125575234	0.118709035384	3.9e-06	-7.5e-06	-2.13e-05
4.816	9.28950244141	2.69347686768	-0.727837304687	28.3382352941	-0.0106584992488	-0.0139892802641	0.075542113426	3.6e-06	-7.2e-06	-2.28e-05
4.827	9.27992563477	2.70544787598	-0.816422766113	28.4323529412	0.00319754977465	-0.0230490046256	0.020517611054	3.9e-06	-8.1e-06	-2.31e-05
4.837	9.25119521484	2.72938989258	-0.842758984375	28.4323529412	0.0183859112042	-0.0257136294378	-0.0342404288368	3.9e-06	-6.9e-06	-2.31e-05
4.847	9.27513723145	2.7940333374	-0.873883605957	28.4323529412	0.0321087289871	-0.0311761103028	-0.0722113324108	5.4e-06	-7.8e-06	-2.28e-05
4.856	9.18655177002	2.82036955566	-0.847547387695	28.4323529412	0.0330413476713	-0.031442572784	-0.0826033691784	5.1e-06	-6.3e-06	-2.37e-05
4.867	9.10993731689	2.83473476562	-0.883460412598	28.4323529412	0.0265130168814	-0.0271791730845	-0.0642174579741	4.5e-06	-6.9e-06	-2.37e-05
4.877	9.14345614014	2.89698400879	-0.9193734375	28.3382352941	0.015055130189	-0.0191852986479	-0.0226493109037	3.6e-06	-7.2e-06	-2.34e-05
4.887	9.12430252686	2.94247384033	-0.804451757813	28.4323529412	0.000666156203051	-0.0118575804143	0.0329081164307	5.7e-06	-6.9e-06	-2.37e-05
4.896	9.14824454346	2.90656081543	-0.873883605957	28.4323529412	-0.0149218989483	-0.00892649312089	0.0807381318098	5.4e-06	-8.4e-06	-2.22e-05
4.907	9.23922420654	2.83712896729	-0.787692346191	28.4323529412	-0.0215834609789	-0.00812710567723	0.10698468621	4.8e-06	-6.6e-06	-2.4e-05
4.917	9.24880101318	2.77248552246	-0.861912597656	28.3382352941	-0.0190520674073	-0.00826033691784	0.106718223729	4.5e-06	-8.1e-06	-2.37e-05
4.927	9.24880101318	2.71741888428	-0.790086547852	28.3382352941	-0.0137228177829	-0.0127901990986	0.077940275757	3.3e-06	-7.5e-06	-2.49e-05
4.936	9.21288798828	2.6862942627	-0.821211169434	28.4323529412	0.00119908116549	-0.0189188361667	0.0323751914683	4.2e-06	-6.6e-06	-2.16e-05
4.946	9.25837781982	2.7461493042	-0.847547387695	28.3382352941	0.0118575804143	-0.0241148545505	-0.0122572741361	5.4e-06	-8.4e-06	-2.34e-05
4.957	9.1697923584	2.78445653076	-0.802057556152	28.4323529412	0.0237151608286	-0.0302434916185	-0.0511607963943	3.9e-06	-8.1e-06	-2.37e-05
4.967	9.19134017334	2.85388837891	-0.869095202637	28.4323529412	0.029044410453	-0.0295773354155	-0.0690137826361	4.5e-06	-6.9e-06	-2.25e-05
4.976	9.17458076172	2.89937821045	-0.861912597656	28.3382352941	0.0274456355657	-0.0281117917688	-0.0588882083497	3.6e-06	-7.2e-06	-2.4e-05
4.986	9.17936916504	2.87304199219	-0.888248815918	28.4323529412	0.0171868300387	-0.0238483920692	-0.0275788668063	6e-06	-7.2e-06	-2.16e-05
4.997	9.12669672852	2.89698400879	-0.821211169434	28.5264705882	0.00532924962441	-0.0142557427453	0.0215834609789	3.9e-06	-6.9e-06	-2.31e-05
5.006	9.193734375	2.88980140381	-0.92655604248	28.3382352941	-0.00706125575234	-0.010258805527	0.0592879020716	6.6e-06	-7.8e-06	-2.28e-05
5.016	9.21288798828	2.85388837891	-0.854729992676	28.3382352941	-0.0179862174824	-0.00812710567723	0.093661562149	5.4e-06	-5.4e-06	-2.34e-05
5.026	9.22725319824	2.7222072876	-0.804451757813	28.3382352941	-0.0179862174824	-0.00985911180516	0.100989280383	4.2e-06	-7.2e-06	-2.28e-05
5.037	9.22007059326	2.76051451416	-0.730231506348	28.4323529412	-0.0146554364671	-0.0125237366174	0.0816707504941	2.4e-06	-7.8e-06	-2.46e-05
5.046	9.2655604248	2.69347686768	-0.775721337891	28.4323529412	-0.00226493109037	-0.0189188361667	0.0475635528979	5.1e-06	-7.5e-06	-2.25e-05
5.056	9.1697923584	2.74854350586	-0.799663354492	28.4323529412	0.00546248086502	-0.0242480857911	0.00119908116549	4.8e-06	-7.2e-06	-2.16e-05
5.066	9.22485899658	2.7461493042	-0.828393774414	28.2441176471	0.0210505360164	-0.0281117917688	-0.0405022971455	5.4e-06	-7.8e-06	-2.34e-05
5.076	9.1458503418	2.7940333374	-0.809240161133	28.4323529412	0.0257136294378	-0.0294441041749	-0.0640842267335	4.5e-06	-7.5e-06	-2.37e-05
5.086	9.17697496338	2.78924493408	-0.842758984375	28.4323529412	0.0270459418439	-0.0291776416936	-0.0612863706807	3.9e-06	-6.3e-06	-2.31e-05
5.096	9.13866773682	2.7820623291	-0.905008227539	28.3382352941	0.0174532925199	-0.0209173047758	-0.0311761103028	6.3e-06	-6.3e-06	-2.25e-05
5.106	9.1338793335	2.87064779053	-0.869095202637	28.3382352941	0.00746094947417	-0.0183859112042	0.0142557427453	4.5e-06	-8.7e-06	-2.37e-05
5.116	9.17697496338	2.80361014404	-0.76135612793	28.3382352941	-0.00932618684272	-0.0123905053768	0.0542251149284	3.9e-06	-6.9e-06	-2.31e-05
5.126	9.17697496338	2.82755216064	-0.864306799316	28.4323529412	-0.0162542113545	-0.00692802451173	0.0855344564718	4.2e-06	-6.6e-06	-2.4e-05
5.136	9.17458076172	2.7700913208	-0.799663354492	28.3382352941	-0.0162542113545	-0.00626186830868	0.0944609495927	4.8e-06	-6e-06	-2.34e-05
5.146	9.1817633667	2.68868846436	-0.778115539551	28.4323529412	-0.0138560490235	-0.0149218989483	0.0792725881631	3.9e-06	-6.9e-06	-2.31e-05
5.156	9.28231983643	2.7341782959	-0.790086547852	28.4323529412	-0.00293108729343	-0.0170535987981	0.0454318530481	4.5e-06	-7.5e-06	-2.31e-05
5.166	9.32062706299	2.75333190918	-0.792480749512	28.4323529412	0.00666156203051	-0.0251807044753	0.00173200612793	4.5e-06	-7.5e-06	-2.25e-05
5.176	9.17936916504	2.77487972412	-0.790086547852	28.4323529412	0.0191852986479	-0.0285114854906	-0.0349065850399	5.1e-06	-7.5e-06	-2.37e-05
5.186	9.23683000488	2.77727392578	-0.828393774414	28.4323529412	0.023581929588	-0.02837825425	-0.0579555896655	4.5e-06	-6.9e-06	-2.31e-05
5.195	9.19134017334	2.81558115234	-0.787692346191	28.4323529412	0.0234486983474	-0.0247810107535	-0.0514272588756	3.6e-06	-8.4e-06	-2.4e-05
5.206	9.14345614014	2.85867678223	-0.833182177734	28.4323529412	0.0195849923697	-0.0199846860915	-0.0299770291373	3.9e-06	-7.5e-06	-2.55e-05
5.216	9.14824454346	2.86585938721	-0.792480749512	28.3382352941	0.00506278714319	-0.0163874425951	0.0118575804143	4.2e-06	-6.6e-06	-2.34e-05
5.226	9.21528218994	2.91134921875	-0.818816967773	28.4323529412	-0.00599540582746	-0.0130566615798	0.0504946401913	4.5e-06	-5.7e-06	-2.37e-05
5.235	9.24401260986	2.79882174072	-0.732625708008	28.4323529412	-0.012656967858	-0.00812710567723	0.0806049005692	3.9e-06	-5.7e-06	-2.43e-05
5.245	9.20091697998	2.7940333374	-0.804451757813	28.4323529412	-0.0145222052265	-0.0105252680082	0.0891316999683	5.7e-06	-7.5e-06	-2.49e-05
5.256	9.18415756836	2.72699569092	-0.794874951172	28.4323529412	-0.01092496173	-0.0119908116549	0.0742098010199	3.9e-06	-7.5e-06	-2.31e-05
5.266	9.27753143311	2.71981308594	-0.660799658203	28.4323529412	-0.00599540582746	-0.0197182236103	0.0454318530481	5.4e-06	-8.4e-06	-2.4e-05
5.275	9.22725319824	2.73178409424	-0.792480749512	28.4323529412	0.00799387443662	-0.0238483920692	0.00626186830868	3.6e-06	-6e-06	-2.34e-05
5.285	9.23922420654	2.76769711914	-0.809240161133	28.3382352941	0.0179862174824	-0.0267794793627	-0.0246477795129	2.4e-06	-6.6e-06	-2.4e-05
5.296	9.17936916504	2.79642753906	-0.852335791016	28.3382352941	0.0194517611291	-0.0270459418439	-0.0490290965446	4.5e-06	-8.7e-06	-2.19e-05
5.306	9.1697923584	2.85867678223	-0.828393774414	28.3382352941	0.0214502297383	-0.0251807044753	-0.0491623277852	4.5e-06	-6.3e-06	-2.37e-05
5.315	9.2296473999	2.84431157227	-0.890643017578	28.3382352941	0.0183859112042	-0.021183767257	-0.0277120980469	3.6e-06	-6e-06	-2.22e-05
5.325	9.13148513184	2.86107098389	-0.945709655762	28.4323529412	0.00972588056455	-0.0198514548509	0.00546248086502	4.5e-06	-9.3e-06	-2.37e-05
5.336	9.16739815674	2.88980140381	-0.859518395996	28.4323529412	-0.00359724349648	-0.0130566615798	0.041035222108	5.1e-06	-7.5e-06	-2.25e-05
5.346	9.11951412354	2.81318695068	-0.814028564453	28.3382352941	-0.0130566615798	-0.0111914242113	0.0691470138767	5.1e-06	-8.1e-06	-2.37e-05
5.355	9.21528218994	2.817975354	-0.756567724609	28.3382352941	-0.012656967858	-0.0105252680082	0.0811378255316	4.5e-06	-8.7e-06	-2.31e-05
5.365	9.19612857666	2.70305367432	-0.873883605957	28.4323529412	-0.00959264932394	-0.0129234303392	0.0742098010199	5.1e-06	-7.5e-06	-2.37e-05
5.376	9.28710823975	2.70544787598	-0.809240161133	28.4323529412	-0.00452986218075	-0.0175865237606	0.0500949464695	6.3e-06	-5.7e-06	-2.37e-05
5.385	9.31105025635	2.698265271	-0.893037219238	28.4323529412	0.00266462481221	-0.0227825421444	0.0134563553016	5.4e-06	-6e-06	-2.22e-05
5.395	9.193734375	2.7341782959	-0.840364782715	28.4323529412	0.0134563553016	-0.0247810107535	-0.0215834609789	6e-06	-7.2e-06	-2.22e-05
5.405	9.2416184082	2.75093770752	-0.821211169434	28.4323529412	0.0207840735352	-0.0249142419941	-0.0398361409425	4.8e-06	-4.8e-06	-2.28e-05
5.415	9.22725319824	2.83712896729	-0.823605371094	28.4323529412	0.020517611054	-0.0257136294378	-0.0442327718826	5.4e-06	-7.2e-06	-2.34e-05
5.425	9.18655177002	2.87304199219	-0.888248815918	28.4323529412	0.0159877488732	-0.0214502297383	-0.0253139357159	4.8e-06	-8.4e-06	-2.4e-05
5.435	9.11472572021	2.84431157227	-0.775721337891	28.4323529412	0.0090597243615	-0.0179862174824	0.00159877488732	6e-06	-7.8e-06	-2.34e-05
5.445	9.16739815674	2.86107098389	-0.806845959473	28.4323529412	0.000266462481221	-0.0129234303392	0.0359724349648	4.2e-06	-4.8e-06	-2.46e-05
5.455	9.20331118164	2.82755216064	-0.775721337891	28.3382352941	-0.0101255742864	-0.00945941808333	0.0590214395903	5.4e-06	-7.2e-06	-2.34e-05
5.465	9.19134017334	2.698265271	-0.76853873291	28.5264705882	-0.0090597243615	-0.0113246554519	0.0736768760575	3.6e-06	-7.2e-06	-2.28e-05
5.475	9.24640681152	2.71502468262	-0.821211169434	28.4323529412	-0.0114578866925	-0.0149218989483	0.0663491578239	3.6e-06	-7.2e-06	-2.22e-05
5.485	9.2296473999	2.70065947266	-0.77093293457	28.4323529412	-0.00213169984976	-0.0197182236103	0.0460980092511	3.6e-06	-7.2e-06	-2.34e-05
5.495	9.22007059326	2.74136090088	-0.814028564453	28.3382352941	0.00279785605282	-0.0189188361667	0.0179862174824	3.6e-06	-7.2e-06	-2.22e-05
5.505	9.24401260986	2.75333190918	-0.814028564453	28.4323529412	0.0103920367676	-0.0234486983474	-0.0111914242113	4.2e-06	-7.2e-06	-2.34e-05
5.515	9.19852277832	2.80361014404	-0.849941589355	28.4323529412	0.0197182236103	-0.0271791730845	-0.0275788668063	4.2e-06	-7.2e-06	-2.22e-05
5.525	9.17936916504	2.80121594238	-0.780509741211	28.4323529412	0.0166539050763	-0.0233154671068	-0.0347733537993	5.1e-06	-8.1e-06	-2.31e-05
5.534	9.17458076172	2.82276375732	-0.859518395996	28.4323529412	0.0129234303392	-0.0230490046256	-0.0195849923697	4.2e-06	-7.2e-06	-2.22e-05
5.544	9.17697496338	2.83473476562	-0.76375032959	28.3382352941	0.00919295560211	-0.0197182236103	-0.000532924962441	5.7e-06	-8.1e-06	-2.25e-05
5.555	9.17218656006	2.83234056396	-0.830787976074	28.4323529412	0.000532924962441	-0.0143889739859	0.0253139357159	4.5e-06	-7.5e-06	-2.19e-05
5.565	9.19612857666	2.84909997559	-0.806845959473	28.4323529412	-0.00399693721831	-0.0127901990986	0.0483629403415	3.9e-06	-6.3e-06	-2.37e-05
5.574	9.2176763916	2.82276375732	-0.852335791016	28.4323529412	-0.00719448699295	-0.0134563553016	0.0611531394401	4.5e-06	-8.1e-06	-2.31e-05
5.584	9.14824454346	2.72938989258	-0.809240161133	28.3382352941	-0.0111914242113	-0.0115911179331	0.0630183768087	4.2e-06	-8.4e-06	-2.28e-05
5.595	9.25837781982	2.69347686768	-0.861912597656	28.4323529412	-0.000532924962441	-0.0163874425951	0.047163859176	3.9e-06	-7.5e-06	-2.43e-05
5.605	9.28231983643	2.78445653076	-0.797269152832	28.4323529412	0.00226493109037	-0.0173200612793	0.023581929588	4.2e-06	-8.4e-06	-2.34e-05
5.614	9.22246479492	2.77966812744	-0.845153186035	28.4323529412	0.00866003063967	-0.0266462481221	-0.00586217458685	3.9e-06	-6.9e-06	-2.31e-05
5.624	9.24401260986	2.74136090088	-0.881066210937	28.5264705882	0.0149218989483	-0.0226493109037	-0.0233154671068	5.4e-06	-6.6e-06	-2.34e-05
5.635	9.21288798828	2.817975354	-0.821211169434	28.4323529412	0.015721286392	-0.0258468606784	-0.0305099540997	4.8e-06	-5.4e-06	-2.28e-05
5.645	9.18415756836	2.77727392578	-0.859518395996	28.4323529412	0.0162542113545	-0.0193185298885	-0.0173200612793	3.6e-06	-7.8e-06	-2.22e-05
5.654	9.16739815674	2.85149417725	-0.92655604248	28.4323529412	0.00466309342136	-0.0197182236103	0.00186523736854	4.8e-06	-8.4e-06	-2.34e-05
5.664	9.20331118164	2.8299463623	-0.744596716309	28.4323529412	-0.00306431853404	-0.0159877488732	0.0234486983474	4.5e-06	-8.7e-06	-2.31e-05
5.675	9.16260975342	2.85628258057	-0.821211169434	28.3382352941	-0.00373047473709	-0.0135895865422	0.0480964778603	4.8e-06	-6.6e-06	-2.4e-05
5.685	9.2296473999	2.80121594238	-0.849941589355	28.4323529412	-0.00626186830868	-0.0155880551514	0.0558238898157	4.8e-06	-6e-06	-2.28e-05
5.694	9.25837781982	2.75333190918	-0.828393774414	28.4323529412	-0.00452986218075	-0.0147886677077	0.0587549771091	4.8e-06	-6.6e-06	-2.16e-05
5.704	9.23443580322	2.77248552246	-0.739808312988	28.3382352941	-0.00333078101526	-0.0171868300387	0.0402358346643	4.2e-06	-6e-06	-2.34e-05
5.714	9.23443580322	2.78445653076	-0.792480749512	28.3382352941	0.00413016845892	-0.0178529862418	0.0186523736854	4.5e-06	-7.5e-06	-2.43e-05
5.724	9.25837781982	2.77487972412	-0.818816967773	28.3382352941	0.00919295560211	-0.0223828484225	-0.00253139357159	4.5e-06	-8.1e-06	-2.25e-05
5.734	9.19852277832	2.75572611084	-0.780509741211	28.4323529412	0.0129234303392	-0.0213169984976	-0.0195849923697	6e-06	-7.2e-06	-2.22e-05
5.744	9.17458076172	2.84191737061	-0.871489404297	28.4323529412	0.0142557427453	-0.0246477795129	-0.0197182236103	6.3e-06	-5.7e-06	-2.31e-05
5.754	9.16739815674	2.7940333374	-0.823605371094	28.5264705882	0.0110581929707	-0.0226493109037	-0.0145222052265	4.5e-06	-6.9e-06	-2.31e-05
5.764	9.1578213501	2.78445653076	-0.895431420898	28.4323529412	0.00466309342136	-0.0162542113545	0.00373047473709	5.1e-06	-7.5e-06	-2.31e-05
5.774	9.14106193848	2.81558115234	-0.840364782715	28.3382352941	0.00226493109037	-0.0169203675575	0.0223828484225	5.7e-06	-7.5e-06	-2.31e-05
5.784	9.23922420654	2.82036955566	-0.782903942871	28.4323529412	0.00119908116549	-0.0122572741361	0.0434333844389	3.9e-06	-6.3e-06	-2.31e-05
5.794	9.1697923584	2.7820623291	-0.876277807617	28.4323529412	-0.0051960183838	-0.0135895865422	0.0563568147781	3.9e-06	-5.7e-06	-2.43e-05
5.804	9.18415756836	2.79163913574	-0.811634362793	28.4323529412	-0.00706125575234	-0.0138560490235	0.0530260337629	5.1e-06	-8.1e-06	-2.25e-05
5.814	9.26077202148	2.77966812744	-0.677559069824	28.4323529412	-0.00373047473709	-0.0158545176326	0.0413016845892	5.4e-06	-7.2e-06	-2.34e-05
5.824	9.23204160156	2.77487972412	-0.785298144531	28.3382352941	0.000799387443662	-0.0207840735352	0.0197182236103	3e-06	-6.6e-06	-2.34e-05
5.834	9.23443580322	2.8060043457	-0.794874951172	28.4323529412	0.0106584992488	-0.021183767257	0.00106584992488	5.1e-06	-7.5e-06	-2.37e-05
5.843	9.18894597168	2.74136090088	-0.854729992676	28.5264705882	0.0123905053768	-0.0241148545505	-0.0151883614296	4.8e-06	-7.8e-06	-2.22e-05
5.854	9.23204160156	2.817975354	-0.859518395996	28.4323529412	0.0159877488732	-0.0227825421444	-0.0198514548509	4.8e-06	-7.2e-06	-2.22e-05
5.864	9.16021555176	2.78445653076	-0.816422766113	28.4323529412	0.0121240428955	-0.0243813170317	-0.0125237366174	5.1e-06	-6.9e-06	-2.37e-05
5.874	9.16260975342	2.79163913574	-0.830787976074	28.4323529412	0.0101255742864	-0.0203843798134	0.00466309342136	3.6e-06	-7.8e-06	-2.4e-05
5.883	9.1458503418	2.82515795898	-0.861912597656	28.4323529412	0.00319754977465	-0.0135895865422	0.0217166922195	4.5e-06	-6.9e-06	-2.37e-05
5.894	9.24880101318	2.77248552246	-0.866701000977	28.4323529412	-0.00146554364671	-0.0158545176326	0.0419678407922	6e-06	-7.8e-06	-2.4e-05
5.904	9.16500395508	2.79882174072	-0.847547387695	28.4323529412	-0.00439663094014	-0.0107917304894	0.0540918836878	4.5e-06	-7.5e-06	-2.31e-05
5.913	9.16260975342	2.77966812744	-0.787692346191	28.5264705882	-0.00426339969953	-0.0154548239108	0.0478300153791	5.1e-06	-8.1e-06	-2.25e-05
5.923	9.193734375	2.74854350586	-0.814028564453	28.4323529412	-0.0013323124061	-0.0175865237606	0.0382373660551	4.5e-06	-8.1e-06	-2.31e-05
5.934	9.23683000488	2.71741888428	-0.854729992676	28.4323529412	0.00266462481221	-0.0191852986479	0.018119448723	3.6e-06	-6.6e-06	-2.22e-05
5.944	9.19852277832	2.76530291748	-0.835576379395	28.4323529412	0.00866003063967	-0.0199846860915	0.00239816233098	4.2e-06	-7.8e-06	-2.34e-05
5.953	9.22485899658	2.78685073242	-0.821211169434	28.4323529412	0.0115911179331	-0.0233154671068	-0.0143889739859	4.8e-06	-7.2e-06	-2.4e-05
5.963	9.22246479492	2.79882174072	-0.828393774414	28.5264705882	0.0118575804143	-0.0183859112042	-0.0154548239108	3.9e-06	-7.5e-06	-2.37e-05
5.974	9.20809958496	2.84191737061	-0.883460412598	28.4323529412	0.0115911179331	-0.0234486983474	-0.00985911180516	4.5e-06	-7.5e-06	-2.31e-05
5.984	9.17697496338	2.86585938721	-0.871489404297	28.4323529412	0.00706125575234	-0.0191852986479	0.00732771823356	5.4e-06	-6.6e-06	-2.22e-05
5.993	9.20809958496	2.77248552246	-0.830787976074	28.4323529412	0.00399693721831	-0.0171868300387	0.0241148545505	5.7e-06	-6.9e-06	-2.31e-05
6.003	9.18894597168	2.75572611084	-0.818816967773	28.4323529412	-0.00173200612793	-0.0142557427453	0.0399693721831	5.1e-06	-7.5e-06	-2.43e-05
6.013	9.24640681152	2.76769711914	-0.809240161133	28.5264705882	-0.00506278714319	-0.0106584992488	0.0484961715821	6e-06	-8.4e-06	-2.28e-05
6.024	9.26316622314	2.8060043457	-0.895431420898	28.3382352941	-0.00466309342136	-0.015055130189	0.0448989280857	5.4e-06	-6.6e-06	-2.46e-05
6.033	9.23204160156	2.74136090088	-0.732625708008	28.4323529412	-0.00426339969953	-0.0185191424448	0.0374379786115	4.8e-06	-6.6e-06	-2.34e-05
6.043	9.21528218994	2.68150585937	-0.744596716309	28.4323529412	0.00599540582746	-0.0207840735352	0.0165206738357	6e-06	-6e-06	-2.4e-05
6.053	9.193734375	2.74136090088	-0.778115539551	28.4323529412	0.00306431853404	-0.0223828484225	0.00266462481221	4.2e-06	-7.2e-06	-2.34e-05
6.064	9.19134017334	2.77727392578	-0.711077893066	28.4323529412	0.0135895865422	-0.0215834609789	-0.00692802451173	5.7e-06	-7.5e-06	-2.25e-05
6.073	9.22007059326	2.78685073242	-0.833182177734	28.5264705882	0.0111914242113	-0.0230490046256	-0.01092496173	5.4e-06	-7.2e-06	-2.34e-05
6.083	9.18415756836	2.82755216064	-0.77332713623	28.4323529412	0.00985911180516	-0.018785604926	-0.00639509954929	5.4e-06	-6.6e-06	-2.22e-05
6.093	9.24401260986	2.84670577393	-0.828393774414	28.4323529412	0.00666156203051	-0.018785604926	0.00612863706807	5.1e-06	-7.5e-06	-2.25e-05
6.103	9.24880101318	2.76769711914	-0.809240161133	28.4323529412	0.00399693721831	-0.018119448723	0.0210505360164	4.8e-06	-6.6e-06	-2.22e-05
6.113	9.1817633667	2.7581203125	-0.852335791016	28.5264705882	-0.00013323124061	-0.0165206738357	0.0346401225587	4.5e-06	-6.3e-06	-2.25e-05
6.123	9.22485899658	2.78685073242	-0.835576379395	28.4323529412	-0.0013323124061	-0.0158545176326	0.0419678407922	5.4e-06	-6.6e-06	-2.4e-05
6.133	9.24640681152	2.80361014404	-0.792480749512	28.3382352941	-0.00439663094014	-0.0154548239108	0.0418346095516	3.9e-06	-8.7e-06	-2.43e-05
6.142	9.1817633667	2.73657249756	-0.900219824219	28.4323529412	-0.000932618684272	-0.0147886677077	0.0329081164307	5.4e-06	-7.2e-06	-2.34e-05
6.153	9.26077202148	2.7461493042	-0.859518395996	28.4323529412	0.00279785605282	-0.0155880551514	0.0197182236103	4.5e-06	-5.7e-06	-2.43e-05
6.163	9.2296473999	2.76530291748	-0.75896192627	28.4323529412	0.00879326188028	-0.020517611054	0.00746094947417	4.8e-06	-8.4e-06	-2.34e-05
6.173	9.19852277832	2.75333190918	-0.861912597656	28.5264705882	0.0117243491737	-0.0219831547007	-0.00146554364671	4.5e-06	-6.9e-06	-2.43e-05
6.182	9.193734375	2.82036955566	-0.775721337891	28.5264705882	0.0115911179331	-0.0231822358662	-0.00692802451173	5.7e-06	-6.9e-06	-2.43e-05
6.193	9.22007059326	2.82276375732	-0.840364782715	28.5264705882	0.00599540582746	-0.0183859112042	-0.00186523736854	3e-06	-7.2e-06	-2.28e-05
6.203	9.25119521484	2.8299463623	-0.744596716309	28.5264705882	0.00759418071478	-0.0222496171819	0.0038637059777	4.5e-06	-7.5e-06	-2.31e-05
6.213	9.193734375	2.81558115234	-0.861912597656	28.4323529412	0.00319754977465	-0.0182526799636	0.0163874425951	4.5e-06	-7.5e-06	-2.43e-05
6.222	9.22007059326	2.77727392578	-0.847547387695	28.6205882353	-0.000666156203051	-0.0175865237606	0.0291776416936	5.4e-06	-7.8e-06	-2.52e-05
6.233	9.2535894165	2.70784207764	-0.821211169434	28.4323529412	-0.00213169984976	-0.0165206738357	0.0363721286866	2.1e-06	-8.7e-06	-2.37e-05
6.243	9.27274302979	2.74854350586	-0.840364782715	28.5264705882	-0.00226493109037	-0.015721286392	0.0382373660551	3.6e-06	-7.8e-06	-2.4e-05
6.253	9.28710823975	2.79163913574	-0.833182177734	28.6205882353	-0.0013323124061	-0.0162542113545	0.0318422665059	5.7e-06	-8.1e-06	-2.43e-05
6.262	9.21288798828	2.8060043457	-0.720654699707	28.4323529412	0.00333078101526	-0.0161209801138	0.0210505360164	4.2e-06	-7.2e-06	-2.34e-05
6.273	9.24401260986	2.7700913208	-0.876277807617	28.5264705882	0.00732771823356	-0.0203843798134	0.0117243491737	3.9e-06	-6.3e-06	-2.43e-05
6.283	9.16021555176	2.7581203125	-0.828393774414	28.5264705882	0.00772741195539	-0.0207840735352	0.00306431853404	3.9e-06	-6.9e-06	-2.13e-05
6.292	9.193734375	2.80361014404	-0.742202514648	28.5264705882	0.00852679939906	-0.0190520674073	-0.000799387443662	4.2e-06	-6.6e-06	-2.34e-05
6.302	9.22725319824	2.77248552246	-0.785298144531	28.4323529412	0.00999234304577	-0.0155880551514	-0.00159877488732	4.8e-06	-6.6e-06	-2.34e-05
6.312	9.26795462646	2.84191737061	-0.842758984375	28.4323529412	0.00866003063967	-0.0221163859413	0.0051960183838	4.2e-06	-7.2e-06	-2.34e-05
6.323	9.2176763916	2.82036955566	-0.75896192627	28.5264705882	0.00866003063967	-0.0199846860915	0.0145222052265	5.7e-06	-7.5e-06	-2.25e-05
6.332	9.16021555176	2.86107098389	-0.802057556152	28.5264705882	0.000666156203051	-0.0175865237606	0.0253139357159	2.4e-06	-6e-06	-2.34e-05
6.342	9.2416184082	2.7940333374	-0.814028564453	28.5264705882	-0.00013323124061	-0.0143889739859	0.0311761103028	4.2e-06	-7.8e-06	-2.1e-05
6.352	9.27753143311	2.80121594238	-0.845153186035	28.5264705882	-0.00293108729343	-0.0147886677077	0.0346401225587	4.5e-06	-8.1e-06	-2.31e-05
6.363	9.26795462646	2.79882174072	-0.818816967773	28.4323529412	0.000532924962441	-0.0155880551514	0.0295773354155	4.5e-06	-7.5e-06	-2.55e-05
6.372	9.22485899658	2.75572611084	-0.811634362793	28.4323529412	0.00146554364671	-0.0174532925199	0.0243813170317	2.7e-06	-5.1e-06	-2.31e-05
6.382	9.2416184082	2.76769711914	-0.833182177734	28.5264705882	0.00413016845892	-0.0178529862418	0.0179862174824	5.7e-06	-7.5e-06	-2.25e-05
6.392	9.16021555176	2.81318695068	-0.76135612793	28.5264705882	0.00586217458685	-0.0183859112042	0.00599540582746	4.2e-06	-7.8e-06	-2.34e-05
6.403	9.19612857666	2.7581203125	-0.890643017578	28.4323529412	0.010258805527	-0.0238483920692	-0.000399693721831	4.5e-06	-8.1e-06	-2.43e-05
6.412	9.18415756836	2.8299463623	-0.883460412598	28.4323529412	0.0105252680082	-0.0215834609789	-0.00119908116549	3.6e-06	-6e-06	-2.52e-05
6.422	9.14106193848	2.84191737061	-0.780509741211	28.4323529412	0.00892649312089	-0.0203843798134	0.00399693721831	5.7e-06	-7.5e-06	-2.31e-05
6.432	9.22246479492	2.79882174072	-0.845153186035	28.5264705882	0.00612863706807	-0.020517611054	0.0107917304894	5.7e-06	-7.5e-06	-2.25e-05
6.441	9.08599530029	2.82276375732	-0.842758984375	28.5264705882	0.00399693721831	-0.0170535987981	0.0209173047758	4.5e-06	-7.5e-06	-2.37e-05
6.452	9.22246479492	2.83234056396	-0.857124194336	28.5264705882	0.00119908116549	-0.018785604926	0.0294441041749	4.5e-06	-6.9e-06	-2.31e-05
6.462	9.17697496338	2.77727392578	-0.816422766113	28.5264705882	-0.00186523736854	-0.018785604926	0.0335742726338	4.8e-06	-6e-06	-2.28e-05
6.472	9.2416184082	2.77727392578	-0.77093293457	28.5264705882	-0.000932618684272	-0.0167871363169	0.0321087289871	3.9e-06	-6.9e-06	-2.25e-05
6.481	9.26077202148	2.77487972412	-0.76853873291	28.5264705882	-0.00013323124061	-0.0206508422946	0.0251807044753	4.8e-06	-7.2e-06	-2.34e-05
6.492	9.22485899658	2.73896669922	-0.854729992676	28.4323529412	0.0051960183838	-0.0194517611291	0.0191852986479	4.2e-06	-7.2e-06	-2.22e-05
6.502	9.20809958496	2.77966812744	-0.792480749512	28.4323529412	0.0090597243615	-0.0207840735352	0.00892649312089	5.4e-06	-6.6e-06	-2.34e-05
6.512	9.22007059326	2.72938989258	-0.737414111328	28.5264705882	0.00492955590258	-0.0202511485728	0.00293108729343	4.2e-06	-7.8e-06	-2.4e-05
6.521	9.193734375	2.82755216064	-0.816422766113	28.5264705882	0.00559571210563	-0.0226493109037	-0.000399693721831	4.2e-06	-6e-06	-2.4e-05
6.532	9.2057053833	2.75572611084	-0.849941589355	28.5264705882	0.00812710567723	-0.0199846860915	0.00452986218075	4.2e-06	-7.8e-06	-2.28e-05
6.542	9.22725319824	2.79882174072	-0.871489404297	28.4323529412	0.00706125575234	-0.0183859112042	0.0106584992488	3.6e-06	-7.8e-06	-2.34e-05
6.552	9.17697496338	2.7940333374	-0.802057556152	28.5264705882	0.0013323124061	-0.0162542113545	0.0202511485728	6.3e-06	-6.9e-06	-2.31e-05
6.561	9.21288798828	2.78685073242	-0.893037219238	28.5264705882	0.00213169984976	-0.0167871363169	0.0291776416936	5.4e-06	-7.8e-06	-2.22e-05
6.572	9.16260975342	2.79642753906	-0.821211169434	28.4323529412	-0.00306431853404	-0.0163874425951	0.0330413476713	4.5e-06	-7.5e-06	-2.37e-05
6.582	9.2057053833	2.82036955566	-0.849941589355	28.5264705882	-0.00239816233098	-0.0186523736854	0.0333078101526	4.8e-06	-7.8e-06	-2.22e-05
6.592	9.22007059326	2.7102362793	-0.76853873291	28.5264705882	0.00359724349648	-0.0185191424448	0.0294441041749	5.7e-06	-6.3e-06	-2.25e-05
6.601	9.24880101318	2.74854350586	-0.790086547852	28.4323529412	0.00346401225587	-0.0185191424448	0.0213169984976	4.8e-06	-7.8e-06	-2.4e-05
6.611	9.22246479492	2.7940333374	-0.890643017578	28.5264705882	0.00306431853404	-0.0193185298885	0.00919295560211	5.7e-06	-6.9e-06	-2.25e-05
6.622	9.24640681152	2.73178409424	-0.794874951172	28.4323529412	0.0090597243615	-0.018785604926	0.00186523736854	5.7e-06	-7.5e-06	-2.19e-05
6.631	9.21049378662	2.77487972412	-0.794874951172	28.5264705882	0.0117243491737	-0.0202511485728	-0.000666156203051	3.6e-06	-6.6e-06	-2.46e-05
6.641	9.20809958496	2.77727392578	-0.888248815918	28.4323529412	0.0119908116549	-0.0226493109037	-0.00013323124061	4.8e-06	-6.6e-06	-2.4e-05
6.651	9.23683000488	2.79882174072	-0.842758984375	28.4323529412	0.00732771823356	-0.0177197550012	0.007860643196	4.5e-06	-6.9e-06	-2.25e-05
6.662	9.19612857666	2.87064779053	-0.859518395996	28.4323529412	0.00226493109037	-0.0201179173321	0.0154548239108	6.9e-06	-7.5e-06	-2.31e-05
6.671	9.2296473999	2.80361014404	-0.873883605957	28.5264705882	-0.00199846860915	-0.015721286392	0.025980091919	4.5e-06	-6.9e-06	-2.19e-05
6.681	9.23443580322	2.80121594238	-0.814028564453	28.4323529412	0.00106584992488	-0.0149218989483	0.0306431853404	4.2e-06	-6e-06	-2.34e-05
6.691	9.20091697998	2.76769711914	-0.864306799316	28.5264705882	-0.00146554364671	-0.012656967858	0.0335742726338	3.6e-06	-6.6e-06	-2.4e-05
6.702	9.2057053833	2.7102362793	-0.835576379395	28.5264705882	0.0	-0.0201179173321	0.0313093415434	2.7e-06	-7.5e-06	-2.37e-05
6.711	9.26316622314	2.7341782959	-0.809240161133	28.5264705882	0.00333078101526	-0.0169203675575	0.0210505360164	4.5e-06	-6.3e-06	-2.49e-05
6.721	9.2535894165	2.7700913208	-0.864306799316	28.4323529412	0.00532924962441	-0.0194517611291	0.00932618684272	4.8e-06	-6e-06	-2.28e-05
6.731	9.16260975342	2.7700913208	-0.811634362793	28.5264705882	0.00866003063967	-0.0177197550012	0.00279785605282	6.3e-06	-6.9e-06	-2.37e-05
6.742	9.16260975342	2.73178409424	-0.845153186035	28.4323529412	0.0107917304894	-0.0202511485728	0.00199846860915	4.2e-06	-7.2e-06	-2.4e-05
6.751	9.17458076172	2.78445653076	-0.785298144531	28.5264705882	0.00959264932394	-0.0221163859413	-0.0013323124061	4.5e-06	-6.9e-06	-2.31e-05
6.761	9.18655177002	2.8299463623	-0.859518395996	28.5264705882	0.00826033691784	-0.018119448723	0.007860643196	5.1e-06	-7.5e-06	-2.49e-05
6.771	9.193734375	2.78685073242	-0.790086547852	28.5264705882	0.00452986218075	-0.0186523736854	0.0185191424448	4.5e-06	-7.5e-06	-2.31e-05
6.781	9.16739815674	2.79642753906	-0.811634362793	28.5264705882	-0.00013323124061	-0.0146554364671	0.0246477795129	4.5e-06	-7.5e-06	-2.49e-05
6.791	9.193734375	2.82515795898	-0.864306799316	28.5264705882	0.00159877488732	-0.0174532925199	0.0311761103028	4.2e-06	-6.6e-06	-2.28e-05
6.801	9.22246479492	2.71741888428	-0.809240161133	28.5264705882	0.00106584992488	-0.0167871363169	0.0337075038744	5.7e-06	-7.5e-06	-2.25e-05
6.811	9.21288798828	2.7461493042	-0.854729992676	28.5264705882	0.00373047473709	-0.0197182236103	0.0301102603779	4.2e-06	-7.8e-06	-2.4e-05
6.82	9.2655604248	2.73178409424	-0.780509741211	28.5264705882	0.00226493109037	-0.0215834609789	0.0186523736854	3.9e-06	-6.3e-06	-2.37e-05
6.831	9.21528218994	2.76530291748	-0.809240161133	28.4323529412	0.00266462481221	-0.0159877488732	0.0142557427453	4.5e-06	-6.9e-06	-2.43e-05
6.841	9.2535894165	2.80121594238	-0.785298144531	28.5264705882	0.00759418071478	-0.020517611054	0.00639509954929	3e-06	-7.2e-06	-2.28e-05
6.851	9.20809958496	2.78685073242	-0.909796630859	28.6205882353	0.00799387443662	-0.0203843798134	0.00373047473709	3.9e-06	-8.1e-06	-2.25e-05
6.86	9.2176763916	2.82276375732	-0.857124194336	28.5264705882	0.00852679939906	-0.0225160796631	0.000932618684272	5.4e-06	-6.6e-06	-2.34e-05
6.871	9.2296473999	2.817975354	-0.811634362793	28.4323529412	0.00639509954929	-0.0207840735352	0.00892649312089	3.3e-06	-6.3e-06	-2.25e-05
6.881	9.22007059326	2.7940333374	-0.849941589355	28.5264705882	0.0051960183838	-0.0173200612793	0.0158545176326	4.8e-06	-7.8e-06	-2.16e-05
6.891	9.22246479492	2.77487972412	-0.794874951172	28.5264705882	0.00186523736854	-0.0166539050763	0.0251807044753	3.6e-06	-7.8e-06	-2.22e-05
6.9	9.23204160156	2.80361014404	-0.785298144531	28.5264705882	-0.000532924962441	-0.0185191424448	0.0347733537993	4.2e-06	-5.4e-06	-2.28e-05
6.91	9.15063874512	2.75333190918	-0.816422766113	28.5264705882	-0.00146554364671	-0.0175865237606	0.033174578912	4.2e-06	-8.4e-06	-2.28e-05
6.921	9.24401260986	2.73896669922	-0.744596716309	28.5264705882	0.00266462481221	-0.015721286392	0.0305099540997	4.5e-06	-6.9e-06	-2.31e-05
6.931	9.18894597168	2.78685073242	-0.814028564453	28.5264705882	0.000666156203051	-0.0175865237606	0.022915773385	4.2e-06	-7.2e-06	-2.34e-05
6.94	9.26316622314	2.77487972412	-0.756567724609	28.6205882353	0.0051960183838	-0.0199846860915	0.010258805527	3.6e-06	-7.8e-06	-2.46e-05
6.95	9.20331118164	2.78445653076	-0.782903942871	28.4323529412	0.00706125575234	-0.0195849923697	-0.00013323124061	5.4e-06	-6.6e-06	-2.34e-05
6.961	9.193734375	2.82515795898	-0.792480749512	28.5264705882	0.0115911179331	-0.0218499234601	0.00013323124061	5.1e-06	-7.5e-06	-2.43e-05
6.971	9.21288798828	2.79882174072	-0.787692346191	28.5264705882	0.00945941808333	-0.0195849923697	0.00346401225587	4.2e-06	-4.2e-06	-2.22e-05
6.98	9.20809958496	2.83473476562	-0.754173522949	28.4323529412	0.007860643196	-0.0198514548509	0.00932618684272	4.2e-06	-7.2e-06	-2.28e-05
6.99	9.21288798828	2.75572611084	-0.792480749512	28.5264705882	0.00266462481221	-0.0182526799636	0.0171868300387	5.4e-06	-7.2e-06	-2.22e-05
7.001	9.21049378662	2.76290871582	-0.883460412598	28.6205882353	0.00226493109037	-0.0159877488732	0.0262465544002	4.5e-06	-6.9e-06	-2.31e-05
7.01	9.27513723145	2.76051451416	-0.792480749512	28.5264705882	-0.000666156203051	-0.0147886677077	0.0335742726338	3.6e-06	-6.6e-06	-2.4e-05
7.02	9.18894597168	2.72460148926	-0.811634362793	28.5264705882	-0.000932618684272	-0.0167871363169	0.0322419602277	5.4e-06	-7.8e-06	-2.22e-05
7.03	9.28471403809	2.7222072876	-0.814028564453	28.5264705882	0.00346401225587	-0.0179862174824	0.0278453292875	4.5e-06	-7.5e-06	-2.37e-05
7.041	9.2296473999	2.76290871582	-0.809240161133	28.4323529412	0.00173200612793	-0.0213169984976	0.0165206738357	3e-06	-7.2e-06	-2.34e-05
7.05	9.1578213501	2.78924493408	-0.92176763916	28.5264705882	0.007860643196	-0.020517611054	0.00626186830868	4.2e-06	-7.2e-06	-2.28e-05
7.06	9.16739815674	2.76769711914	-0.804451757813	28.5264705882	0.00799387443662	-0.0201179173321	0.00852679939906	5.1e-06	-7.5e-06	-2.37e-05
7.07	9.193734375	2.78685073242	-0.873883605957	28.5264705882	0.00852679939906	-0.0209173047758	0.00293108729343	4.8e-06	-6.6e-06	-2.46e-05
7.08	9.1458503418	2.78685073242	-0.804451757813	28.5264705882	0.00812710567723	-0.0203843798134	0.00932618684272	5.4e-06	-7.8e-06	-2.34e-05
7.09	9.2416184082	2.78685073242	-0.814028564453	28.6205882353	0.000399693721831	-0.0209173047758	0.0122572741361	3.3e-06	-6.9e-06	-2.43e-05
7.1	9.20331118164	2.7102362793	-0.794874951172	28.4323529412	0.00732771823356	-0.015055130189	0.0225160796631	6.6e-06	-7.2e-06	-2.28e-05
7.11	9.1697923584	2.75333190918	-0.794874951172	28.3382352941	0.00479632466197	-0.0165206738357	0.0278453292875	6.6e-06	-6.6e-06	-2.34e-05
7.12	9.20331118164	2.82515795898	-0.897825622559	28.5264705882	-0.00266462481221	-0.0194517611291	0.0243813170317	3.9e-06	-6.9e-06	-2.37e-05
7.13	9.1817633667	2.77727392578	-0.823605371094	28.5264705882	0.00279785605282	-0.0179862174824	0.0251807044753	4.5e-06	-6.9e-06	-2.31e-05
7.14	9.193734375	2.8060043457	-0.811634362793	28.5264705882	0.00852679939906	-0.0174532925199	0.0237151608286	3.9e-06	-6.3e-06	-2.25e-05
7.15	9.23204160156	2.7581203125	-0.790086547852	28.6205882353	0.00692802451173	-0.0193185298885	0.0167871363169	3.9e-06	-6.9e-06	-2.37e-05
7.16	9.17218656006	2.76290871582	-0.825999572754	28.5264705882	-0.00146554364671	-0.0197182236103	0.00706125575234	3e-06	-7.8e-06	-2.28e-05
7.17	9.20809958496	2.79642753906	-0.780509741211	28.5264705882	0.0101255742864	-0.0206508422946	0.01092496173	3.3e-06	-6.3e-06	-2.37e-05
7.18	9.23443580322	2.87064779053	-0.76375032959	28.5264705882	0.00639509954929	-0.0186523736854	0.0119908116549	4.2e-06	-7.2e-06	-2.46e-05
7.19	9.21288798828	2.76530291748	-0.756567724609	28.6205882353	0.00612863706807	-0.0222496171819	0.012656967858	3.6e-06	-6e-06	-2.34e-05
7.199	9.22485899658	2.78924493408	-0.76853873291	28.5264705882	0.00159877488732	-0.0146554364671	0.01092496173	4.5e-06	-7.5e-06	-2.25e-05
7.209	9.13148513184	2.76290871582	-0.830787976074	28.5264705882	0.00732771823356	-0.0161209801138	0.0269127106033	4.2e-06	-6e-06	-2.4e-05
7.22	9.18894597168	2.78445653076	-0.804451757813	28.5264705882	0.00399693721831	-0.0175865237606	0.0282450230094	4.2e-06	-7.2e-06	-2.22e-05
7.23	9.22485899658	2.83234056396	-0.823605371094	28.4323529412	-0.0013323124061	-0.0215834609789	0.0207840735352	4.5e-06	-6.3e-06	-2.31e-05
7.239	9.16260975342	2.71741888428	-0.794874951172	28.4323529412	-0.00119908116549	-0.0183859112042	0.0238483920692	3.3e-06	-6.9e-06	-2.43e-05
7.249	9.23683000488	2.73178409424	-0.782903942871	28.5264705882	0.0065283307899	-0.0195849923697	0.0191852986479	6.6e-06	-7.8e-06	-2.22e-05
7.26	9.17936916504	2.82755216064	-0.811634362793	28.5264705882	0.00599540582746	-0.0207840735352	0.0105252680082	5.1e-06	-5.7e-06	-2.31e-05
7.27	9.23683000488	2.76769711914	-0.837970581055	28.6205882353	0.00506278714319	-0.0198514548509	0.00559571210563	4.8e-06	-7.2e-06	-2.52e-05
7.279	9.22007059326	2.817975354	-0.778115539551	28.5264705882	0.0113246554519	-0.0197182236103	0.0134563553016	5.1e-06	-8.1e-06	-2.49e-05
7.289	9.27992563477	2.67911165771	-0.818816967773	28.4323529412	0.00826033691784	-0.0217166922195	0.0135895865422	4.2e-06	-7.8e-06	-2.34e-05
7.3	9.21288798828	2.7222072876	-0.885854614258	28.5264705882	0.00346401225587	-0.0190520674073	0.00892649312089	4.5e-06	-6.9e-06	-2.25e-05
7.31	9.2057053833	2.85628258057	-0.833182177734	28.6205882353	0.00146554364671	-0.0206508422946	0.0122572741361	6e-06	-7.8e-06	-2.28e-05
7.319	9.12909093018	2.7940333374	-0.797269152832	28.6205882353	0.00293108729343	-0.0201179173321	0.0146554364671	4.2e-06	-5.4e-06	-2.22e-05
7.329	9.26795462646	2.76769711914	-0.823605371094	28.6205882353	0.00466309342136	-0.0139892802641	0.020517611054	4.2e-06	-7.8e-06	-2.34e-05
7.34	9.1458503418	2.77248552246	-0.787692346191	28.5264705882	-0.00013323124061	-0.018785604926	0.0198514548509	5.7e-06	-6.9e-06	-2.25e-05
7.35	9.20331118164	2.75572611084	-0.845153186035	28.5264705882	0.00439663094014	-0.018785604926	0.0269127106033	4.5e-06	-6.3e-06	-2.43e-05
7.359	9.25598361816	2.7700913208	-0.818816967773	28.5264705882	0.00159877488732	-0.0179862174824	0.0267794793627	5.7e-06	-6.9e-06	-2.43e-05
7.369	9.23683000488	2.70784207764	-0.818816967773	28.5264705882	0.000266462481221	-0.0174532925199	0.0255803981972	5.4e-06	-6e-06	-2.28e-05
7.379	9.18894597168	2.71502468262	-0.77093293457	28.6205882353	-0.00226493109037	-0.0183859112042	0.020517611054	5.4e-06	-7.8e-06	-2.1e-05
7.389	9.27274302979	2.73178409424	-0.806845959473	28.5264705882	0.00359724349648	-0.0203843798134	0.0183859112042	4.5e-06	-6.9e-06	-2.31e-05
7.399	9.25837781982	2.72938989258	-0.849941589355	28.5264705882	0.00959264932394	-0.0193185298885	0.0113246554519	5.4e-06	-7.8e-06	-2.16e-05
7.409	9.22725319824	2.76051451416	-0.866701000977	28.5264705882	0.00479632466197	-0.0167871363169	0.00186523736854	4.8e-06	-7.2e-06	-2.28e-05
7.419	9.20091697998	2.76051451416	-0.76614453125	28.5264705882	0.00692802451173	-0.0185191424448	-0.000266462481221	6e-06	-7.2e-06	-2.46e-05
7.429	9.10514891357	2.77966812744	-0.852335791016	28.5264705882	0.0065283307899	-0.0186523736854	0.0051960183838	4.5e-06	-7.5e-06	-2.31e-05
7.439	9.19852277832	2.82515795898	-0.861912597656	28.6205882353	0.007860643196	-0.0182526799636	0.0117243491737	3.9e-06	-6.3e-06	-2.31e-05
7.449	9.193734375	2.8060043457	-0.91697923584	28.6205882353	0.00293108729343	-0.0162542113545	0.0191852986479	4.5e-06	-6.9e-06	-2.19e-05
7.459	9.15303294678	2.78685073242	-0.847547387695	28.5264705882	0.00226493109037	-0.0155880551514	0.0297105666561	3.6e-06	-8.4e-06	-2.28e-05
7.469	9.23204160156	2.78924493408	-0.804451757813	28.5264705882	0.00013323124061	-0.0163874425951	0.0317090352652	4.5e-06	-6.9e-06	-2.31e-05
7.479	9.18894597168	2.78445653076	-0.778115539551	28.5264705882	0.00186523736854	-0.0202511485728	0.0325084227089	3.6e-06	-7.2e-06	-2.34e-05
7.489	9.25598361816	2.82276375732	-0.790086547852	28.6205882353	0.00213169984976	-0.0197182236103	0.0246477795129	3.6e-06	-6e-06	-2.4e-05
7.499	9.20809958496	2.7461493042	-0.828393774414	28.5264705882	0.00599540582746	-0.0197182236103	0.018119448723	3e-06	-8.4e-06	-2.4e-05
7.508	9.19612857666	2.78685073242	-0.837970581055	28.6205882353	0.00612863706807	-0.0177197550012	0.01092496173	5.7e-06	-7.5e-06	-2.37e-05
7.519	9.17218656006	2.7700913208	-0.811634362793	28.5264705882	0.00279785605282	-0.0215834609789	-0.00119908116549	5.1e-06	-8.7e-06	-2.25e-05
7.529	9.20331118164	2.81558115234	-0.780509741211	28.6205882353	0.00826033691784	-0.0193185298885	0.000932618684272	5.7e-06	-6.9e-06	-2.37e-05
7.538	9.20091697998	2.82755216064	-0.881066210937	28.5264705882	0.01092496173	-0.0178529862418	0.00945941808333	5.1e-06	-6.9e-06	-2.37e-05
7.548	9.17936916504	2.79642753906	-0.837970581055	28.5264705882	0.000399693721831	-0.021183767257	0.0161209801138	4.2e-06	-7.2e-06	-2.28e-05
7.559	9.19852277832	2.82036955566	-0.804451757813	28.4323529412	-0.00413016845892	-0.0185191424448	0.0242480857911	4.5e-06	-6.3e-06	-2.37e-05
7.569	9.16500395508	2.71263048096	-0.785298144531	28.6205882353	0.00479632466197	-0.015055130189	0.0317090352652	5.4e-06	-7.2e-06	-2.22e-05
7.578	9.26795462646	2.80839854736	-0.75896192627	28.6205882353	0.00279785605282	-0.0141225115047	0.031442572784	4.8e-06	-7.2e-06	-2.28e-05
7.588	9.25837781982	2.698265271	-0.806845959473	28.5264705882	-0.0013323124061	-0.0194517611291	0.021183767257	4.8e-06	-6e-06	-2.34e-05
7.599	9.2296473999	2.7940333374	-0.821211169434	28.6205882353	0.00546248086502	-0.0161209801138	0.0153215926702	5.1e-06	-7.5e-06	-2.43e-05
7.609	9.2057053833	2.77487972412	-0.77332713623	28.5264705882	0.00945941808333	-0.0193185298885	0.0115911179331	4.8e-06	-7.8e-06	-2.34e-05
7.618	9.21528218994	2.72699569092	-0.861912597656	28.5264705882	0.00866003063967	-0.0215834609789	0.00293108729343	4.2e-06	-7.8e-06	-2.4e-05
7.628	9.17936916504	2.82036955566	-0.861912597656	28.6205882353	0.00426339969953	-0.0202511485728	0.00306431853404	4.8e-06	-7.2e-06	-2.28e-05
7.639	9.2057053833	2.73896669922	-0.742202514648	28.5264705882	0.00732771823356	-0.0195849923697	0.0051960183838	4.8e-06	-6.6e-06	-2.22e-05
7.649	9.2416184082	2.7940333374	-0.881066210937	28.5264705882	0.00892649312089	-0.0154548239108	0.012656967858	5.1e-06	-6.9e-06	-2.37e-05
7.658	9.18894597168	2.75093770752	-0.821211169434	28.5264705882	0.0013323124061	-0.0170535987981	0.0189188361667	4.2e-06	-7.2e-06	-2.28e-05
7.668	9.19134017334	2.77487972412	-0.809240161133	28.6205882353	0.00159877488732	-0.0178529862418	0.0271791730845	4.5e-06	-6.3e-06	-2.37e-05
7.678	9.2655604248	2.78924493408	-0.797269152832	28.6205882353	-0.0051960183838	-0.0167871363169	0.0330413476713	6.3e-06	-8.1e-06	-2.37e-05
7.689	9.1817633667	2.73178409424	-0.816422766113	28.5264705882	0.00186523736854	-0.0154548239108	0.0323751914683	3.9e-06	-6.3e-06	-2.31e-05
7.698	9.26077202148	2.77248552246	-0.77332713623	28.6205882353	0.00013323124061	-0.0167871363169	0.0291776416936	5.1e-06	-6.9e-06	-2.37e-05
7.708	9.22725319824	2.76051451416	-0.842758984375	28.5264705882	0.00279785605282	-0.0219831547007	0.0167871363169	5.4e-06	-7.2e-06	-2.28e-05
7.718	9.25119521484	2.76290871582	-0.778115539551	28.5264705882	0.00639509954929	-0.0197182236103	0.0107917304894	4.5e-06	-6.3e-06	-2.31e-05
7.728	9.29907924805	2.76290871582	-0.823605371094	28.6205882353	0.00812710567723	-0.0197182236103	0.00373047473709	5.4e-06	-7.2e-06	-2.46e-05
7.738	9.20331118164	2.72699569092	-0.811634362793	28.5264705882	0.0090597243615	-0.0202511485728	0.000532924962441	5.4e-06	-7.2e-06	-2.4e-05
7.748	9.17458076172	2.78685073242	-0.809240161133	28.6205882353	0.0105252680082	-0.0215834609789	-0.000532924962441	4.5e-06	-8.1e-06	-2.25e-05
7.758	9.16739815674	2.7341782959	-0.837970581055	28.7147058824	0.00666156203051	-0.0185191424448	0.0101255742864	3.9e-06	-8.7e-06	-2.31e-05
7.768	9.2416184082	2.77966812744	-0.861912597656	28.5264705882	0.00479632466197	-0.0195849923697	0.0218499234601	5.1e-06	-6.9e-06	-2.43e-05
7.778	9.25598361816	2.77966812744	-0.833182177734	28.4323529412	0.0038637059777	-0.0146554364671	0.0282450230094	4.8e-06	-7.2e-06	-2.34e-05
7.788	9.1817633667	2.79163913574	-0.775721337891	28.5264705882	-0.000399693721831	-0.0173200612793	0.0297105666561	5.1e-06	-6.9e-06	-2.37e-05
7.798	9.23922420654	2.74854350586	-0.849941589355	28.5264705882	0.00253139357159	-0.0158545176326	0.0297105666561	4.8e-06	-6.6e-06	-2.28e-05
7.808	9.23443580322	2.82515795898	-0.830787976074	28.5264705882	0.000932618684272	-0.0186523736854	0.0261133231596	4.2e-06	-8.4e-06	-2.28e-05
7.818	9.21049378662	2.75093770752	-0.881066210937	28.6205882353	0.00639509954929	-0.0178529862418	0.0182526799636	4.2e-06	-6.6e-06	-2.4e-05
7.828	9.26795462646	2.74375510254	-0.888248815918	28.6205882353	0.0131898928204	-0.0203843798134	0.0129234303392	3.3e-06	-6.9e-06	-2.37e-05
7.838	9.33738647461	2.76290871582	-0.756567724609	28.5264705882	0.00186523736854	-0.0215834609789	0.00119908116549	4.5e-06	-7.5e-06	-2.19e-05
7.847	9.1578213501	2.698265271	-0.785298144531	28.6205882353	0.00692802451173	-0.0193185298885	0.00359724349648	4.5e-06	-6.9e-06	-2.37e-05
7.858	9.23443580322	2.77727392578	-0.825999572754	28.5264705882	0.00879326188028	-0.0183859112042	0.0123905053768	5.1e-06	-6.3e-06	-2.25e-05
7.868	9.193734375	2.8299463623	-0.77093293457	28.6205882353	0.00452986218075	-0.0203843798134	0.0162542113545	5.1e-06	-6.9e-06	-2.31e-05
7.878	9.2176763916	2.80121594238	-0.794874951172	28.6205882353	-0.00173200612793	-0.0207840735352	0.020517611054	5.4e-06	-7.2e-06	-2.28e-05
7.887	9.27274302979	2.72699569092	-0.811634362793	28.5264705882	0.00586217458685	-0.0178529862418	0.0258468606784	3.9e-06	-7.5e-06	-2.13e-05
7.898	9.21288798828	2.71981308594	-0.852335791016	28.6205882353	0.000666156203051	-0.0183859112042	0.0255803981972	5.4e-06	-7.2e-06	-2.34e-05
7.908	9.17936916504	2.7581203125	-0.871489404297	28.6205882353	-0.00266462481221	-0.0209173047758	0.0231822358662	4.2e-06	-6.6e-06	-2.34e-05
7.917	9.28231983643	2.79163913574	-0.847547387695	28.5264705882	0.00746094947417	-0.0153215926702	0.0227825421444	4.8e-06	-7.8e-06	-2.4e-05
7.927	9.22485899658	2.7341782959	-0.790086547852	28.5264705882	0.00413016845892	-0.0217166922195	0.0159877488732	3e-06	-7.8e-06	-2.4e-05
7.938	9.18655177002	2.76290871582	-0.802057556152	28.5264705882	0.00492955590258	-0.0201179173321	0.00546248086502	4.5e-06	-6.9e-06	-2.31e-05
7.948	9.28471403809	2.82755216064	-0.811634362793	28.6205882353	0.00852679939906	-0.0155880551514	0.00759418071478	4.2e-06	-7.2e-06	-2.4e-05
7.957	9.22725319824	2.77727392578	-0.828393774414	28.5264705882	0.00985911180516	-0.021183767257	0.0107917304894	4.2e-06	-7.8e-06	-2.34e-05
7.967	9.21528218994	2.78924493408	-0.77093293457	28.5264705882	0.00452986218075	-0.0242480857911	0.0147886677077	4.2e-06	-5.4e-06	-2.34e-05
7.977	9.193734375	2.74136090088	-0.746990917969	28.5264705882	0.000932618684272	-0.0166539050763	0.0198514548509	5.4e-06	-6.6e-06	-2.34e-05
7.988	9.2176763916	2.71981308594	-0.840364782715	28.5264705882	0.00599540582746	-0.0153215926702	0.021183767257	4.8e-06	-7.8e-06	-2.34e-05
7.997	9.21528218994	2.75572611084	-0.859518395996	28.6205882353	0.00266462481221	-0.0203843798134	0.0202511485728	3.6e-06	-7.2e-06	-2.4e-05
8.007	9.15542714844	2.77727392578	-0.799663354492	28.6205882353	0.00319754977465	-0.0177197550012	0.0213169984976	4.2e-06	-8.4e-06	-2.28e-05
8.017	9.20331118164	2.7700913208	-0.790086547852	28.6205882353	0.00479632466197	-0.0171868300387	0.0258468606784	5.1e-06	-6.9e-06	-2.19e-05
8.028	9.20091697998	2.77727392578	-0.833182177734	28.5264705882	0.00719448699295	-0.0243813170317	0.0190520674073	4.5e-06	-8.7e-06	-2.37e-05
8.037	9.2057053833	2.77248552246	-0.679953271484	28.5264705882	0.00679479327112	-0.0145222052265	0.00799387443662	4.8e-06	-7.8e-06	-2.34e-05
8.047	9.20091697998	2.81318695068	-0.893037219238	28.5264705882	0.00426339969953	-0.0186523736854	0.0141225115047	5.1e-06	-6.3e-06	-2.37e-05
8.057	9.21288798828	2.77727392578	-0.852335791016	28.5264705882	0.00293108729343	-0.0207840735352	0.015055130189	5.1e-06	-8.7e-06	-2.31e-05
8.068	9.22725319824	2.77966812744	-0.890643017578	28.6205882353	0.00439663094014	-0.0159877488732	0.015721286392	3.9e-06	-8.1e-06	-2.37e-05
8.077	9.24401260986	2.7940333374	-0.77332713623	28.6205882353	0.00266462481221	-0.0149218989483	0.018785604926	4.5e-06	-6.9e-06	-2.25e-05
8.087	9.19852277832	2.77966812744	-0.825999572754	28.5264705882	0.000532924962441	-0.0225160796631	0.021183767257	4.8e-06	-7.2e-06	-2.34e-05
8.097	9.15063874512	2.82515795898	-0.842758984375	28.5264705882	0.00546248086502	-0.0182526799636	0.0291776416936	5.4e-06	-7.2e-06	-2.34e-05
8.107	9.22246479492	2.83712896729	-0.694318481445	28.6205882353	0.00559571210563	-0.018119448723	0.015055130189	4.8e-06	-6.6e-06	-2.28e-05
8.117	9.24401260986	2.77966812744	-0.782903942871	28.5264705882	0.00159877488732	-0.0189188361667	0.0114578866925	5.4e-06	-6.6e-06	-2.34e-05
8.127	9.21528218994	2.79163913574	-0.823605371094	28.5264705882	0.00306431853404	-0.0219831547007	0.00866003063967	4.8e-06	-7.2e-06	-2.46e-05
8.137	9.25837781982	2.8299463623	-0.775721337891	28.5264705882	0.00879326188028	-0.0210505360164	0.00559571210563	4.8e-06	-8.4e-06	-2.46e-05
8.146	9.18655177002	2.79163913574	-0.818816967773	28.5264705882	0.0090597243615	-0.0166539050763	0.00826033691784	4.5e-06	-6.9e-06	-2.37e-05
8.157	9.19612857666	2.80361014404	-0.825999572754	28.6205882353	0.00106584992488	-0.018119448723	0.0149218989483	3.9e-06	-5.7e-06	-2.19e-05
8.167	9.17218656006	2.76290871582	-0.828393774414	28.5264705882	0.00173200612793	-0.0190520674073	0.0227825421444	6.3e-06	-7.5e-06	-2.55e-05
8.177	9.21528218994	2.71741888428	-0.797269152832	28.7147058824	0.00293108729343	-0.015721286392	0.0327748851901	5.4e-06	-7.8e-06	-2.34e-05
8.186	9.17936916504	2.71263048096	-0.859518395996	28.6205882353	0.00146554364671	-0.0171868300387	0.0285114854906	5.1e-06	-6.9e-06	-2.31e-05
8.197	9.2057053833	2.74136090088	-0.847547387695	28.5264705882	-0.00452986218075	-0.0197182236103	0.0222496171819	4.2e-06	-7.8e-06	-2.28e-05
8.207	9.23922420654	2.77966812744	-0.785298144531	28.6205882353	0.00452986218075	-0.0183859112042	0.0185191424448	5.7e-06	-6.3e-06	-2.31e-05
8.217	9.23683000488	2.75333190918	-0.852335791016	28.5264705882	0.00919295560211	-0.021183767257	0.0137228177829	3.3e-06	-6.9e-06	-2.55e-05
8.226	9.24401260986	2.79163913574	-0.76853873291	28.6205882353	0.0038637059777	-0.0225160796631	0.00199846860915	4.8e-06	-6.6e-06	-2.46e-05
8.237	9.21049378662	2.76051451416	-0.794874951172	28.6205882353	0.00732771823356	-0.022915773385	0.000532924962441	3.6e-06	-6.6e-06	-2.34e-05
8.247	9.22246479492	2.70305367432	-0.845153186035	28.6205882353	0.00812710567723	-0.0203843798134	0.00199846860915	3.6e-06	-5.4e-06	-2.34e-05
8.257	9.30386765137	2.8060043457	-0.852335791016	28.6205882353	0.00439663094014	-0.0167871363169	0.0123905053768	5.7e-06	-4.5e-06	-2.37e-05
8.266	9.22007059326	2.7940333374	-0.730231506348	28.5264705882	0.00199846860915	-0.0130566615798	0.0231822358662	2.4e-06	-7.8e-06	-2.34e-05
8.276	9.193734375	2.7820623291	-0.77332713623	28.5264705882	-0.000532924962441	-0.0141225115047	0.0330413476713	4.5e-06	-6.9e-06	-2.43e-05
8.287	9.16260975342	2.75572611084	-0.849941589355	28.6205882353	-0.00119908116549	-0.0151883614296	0.0339739663556	5.1e-06	-6.9e-06	-2.37e-05
8.296	9.19134017334	2.71741888428	-0.754173522949	28.6205882353	0.000266462481221	-0.0203843798134	0.0241148545505	4.8e-06	-7.2e-06	-2.4e-05
8.306	9.24880101318	2.7102362793	-0.878672009277	28.5264705882	0.00759418071478	-0.0186523736854	0.0182526799636	5.1e-06	-7.5e-06	-2.25e-05
8.316	9.2176763916	2.74136090088	-0.816422766113	28.5264705882	0.00866003063967	-0.0186523736854	0.00919295560211	5.7e-06	-6.3e-06	-2.25e-05
8.327	9.24640681152	2.7222072876	-0.746990917969	28.6205882353	0.00532924962441	-0.0210505360164	0.00199846860915	4.2e-06	-7.2e-06	-2.28e-05
8.336	9.1817633667	2.76051451416	-0.852335791016	28.5264705882	0.00586217458685	-0.0162542113545	0.00213169984976	5.1e-06	-7.5e-06	-2.31e-05
8.346	9.20091697998	2.74375510254	-0.787692346191	28.5264705882	0.00639509954929	-0.0171868300387	0.0154548239108	4.5e-06	-7.5e-06	-2.31e-05
8.356	9.21528218994	2.79163913574	-0.859518395996	28.5264705882	0.00506278714319	-0.0185191424448	0.0233154671068	4.2e-06	-7.8e-06	-2.28e-05
8.367	9.21528218994	2.82036955566	-0.751779321289	28.6205882353	0.0	-0.0169203675575	0.0249142419941	4.5e-06	-5.1e-06	-2.07e-05
8.376	9.29907924805	2.7461493042	-0.797269152832	28.6205882353	-0.000266462481221	-0.0198514548509	0.0297105666561	3.3e-06	-6.3e-06	-2.31e-05
8.386	9.22246479492	2.77248552246	-0.782903942871	28.6205882353	0.00253139357159	-0.0178529862418	0.0282450230094	4.2e-06	-5.4e-06	-2.28e-05
8.396	9.19134017334	2.72699569092	-0.816422766113	28.5264705882	0.00506278714319	-0.018785604926	0.0165206738357	5.4e-06	-7.8e-06	-2.34e-05
8.407	9.21049378662	2.74854350586	-0.751779321289	28.7147058824	0.00266462481221	-0.0206508422946	0.00213169984976	5.1e-06	-7.5e-06	-2.25e-05
8.416	9.20809958496	2.80121594238	-0.881066210937	28.6205882353	0.0107917304894	-0.0213169984976	-0.00119908116549	4.5e-06	-6.9e-06	-2.31e-05
8.426	9.193734375	2.75333190918	-0.816422766113	28.5264705882	0.00959264932394	-0.0202511485728	0.000399693721831	3.6e-06	-7.8e-06	-2.46e-05
8.436	9.21049378662	2.78924493408	-0.845153186035	28.6205882353	0.00306431853404	-0.018119448723	0.00959264932394	5.1e-06	-6.3e-06	-2.43e-05
8.446	9.20331118164	2.73657249756	-0.857124194336	28.6205882353	0.000399693721831	-0.0185191424448	0.0214502297383	3.9e-06	-6.9e-06	-2.43e-05
8.456	9.21528218994	2.74375510254	-0.833182177734	28.6205882353	-0.00106584992488	-0.0158545176326	0.0325084227089	4.5e-06	-8.1e-06	-2.49e-05
8.466	9.24880101318	2.76290871582	-0.792480749512	28.6205882353	-0.00199846860915	-0.0134563553016	0.0397029097019	4.5e-06	-8.7e-06	-2.49e-05
8.476	9.25598361816	2.70065947266	-0.816422766113	28.6205882353	-0.00333078101526	-0.0159877488732	0.0389035222582	3.9e-06	-7.5e-06	-2.37e-05
8.485	9.17697496338	2.7461493042	-0.715866296387	28.6205882353	0.000399693721831	-0.0199846860915	0.0347733537993	4.2e-06	-6e-06	-2.52e-05
8.496	9.22246479492	2.79163913574	-0.821211169434	28.6205882353	0.00319754977465	-0.0209173047758	0.0145222052265	4.2e-06	-7.2e-06	-2.28e-05
8.506	9.2535894165	2.7341782959	-0.711077893066	28.6205882353	0.0101255742864	-0.0190520674073	0.0013323124061	4.8e-06	-7.8e-06	-2.28e-05
8.516	9.20091697998	2.7341782959	-0.849941589355	28.6205882353	0.0121240428955	-0.0249142419941	-0.0127901990986	5.1e-06	-8.1e-06	-2.37e-05
8.525	9.25598361816	2.73178409424	-0.890643017578	28.6205882353	0.0147886677077	-0.0234486983474	-0.00985911180516	4.8e-06	-8.4e-06	-2.28e-05
8.536	9.14824454346	2.74854350586	-0.818816967773	28.7147058824	0.00826033691784	-0.0202511485728	0.000532924962441	6.3e-06	-6.9e-06	-2.43e-05
8.546	9.25119521484	2.76530291748	-0.778115539551	28.6205882353	0.00692802451173	-0.0174532925199	0.0159877488732	4.5e-06	-6.9e-06	-2.37e-05
8.556	9.24401260986	2.7700913208	-0.842758984375	28.6205882353	-0.00199846860915	-0.0177197550012	0.0297105666561	4.2e-06	-7.2e-06	-2.28e-05
8.565	9.21049378662	2.75333190918	-0.825999572754	28.5264705882	-0.00359724349648	-0.0121240428955	0.03930321598	5.7e-06	-8.1e-06	-2.49e-05
8.576	9.19134017334	2.77487972412	-0.792480749512	28.6205882353	0.00479632466197	-0.0141225115047	0.0482297091009	3.9e-06	-8.1e-06	-2.43e-05
8.586	9.31105025635	2.73896669922	-0.780509741211	28.5264705882	-0.000532924962441	-0.0145222052265	0.0438330781608	6e-06	-7.2e-06	-2.28e-05
8.596	9.24880101318	2.72938989258	-0.857124194336	28.6205882353	-0.00306431853404	-0.021183767257	0.0214502297383	3.6e-06	-7.2e-06	-2.4e-05
8.605	9.22725319824	2.77966812744	-0.799663354492	28.5264705882	0.00852679939906	-0.0194517611291	0.0135895865422	4.8e-06	-7.8e-06	-2.22e-05
8.615	9.18894597168	2.66474644775	-0.92176763916	28.6205882353	0.0145222052265	-0.020517611054	0.00266462481221	4.5e-06	-6.9e-06	-2.43e-05
8.626	9.23683000488	2.82276375732	-0.77332713623	28.5264705882	0.0090597243615	-0.0225160796631	-0.00972588056455	4.5e-06	-6.9e-06	-2.49e-05
8.636	9.22007059326	2.78924493408	-0.790086547852	28.6205882353	0.00719448699295	-0.0221163859413	-0.010258805527	5.4e-06	-6.6e-06	-2.34e-05
8.645	9.22725319824	2.79163913574	-0.799663354492	28.5264705882	0.0129234303392	-0.0223828484225	0.000266462481221	3.9e-06	-6.9e-06	-2.43e-05
8.655	9.1697923584	2.77248552246	-0.811634362793	28.6205882353	0.00532924962441	-0.0175865237606	0.00413016845892	4.8e-06	-7.8e-06	-2.34e-05
8.666	9.23443580322	2.84909997559	-0.744596716309	28.6205882353	0.00426339969953	-0.0197182236103	0.00999234304577	5.1e-06	-8.1e-06	-2.37e-05
